Time,IMU_I,IMU_GyrX,IMU_GyrY,IMU_GyrZ,IMU_AccX,IMU_AccY,IMU_AccZ,IMU_EG,IMU_EA,IMU_T,IMU_GH,IMU_AH,IMU_GHz,IMU_AHz
 119809557, 0, 0.001710757, 0.00165582, 0.001750735, -0.0008288098, -0.0006150918, -9.817377, 0, 0, 31.50703, 1, 1, 1000, 1000
 119809557, 1, 0.001550989, 0.001724998, 0.001863053, -0.0008740517, -0.002834645, -9.818551, 0, 0, 31.50703, 1, 1, 760, 800
 119849541, 0, 0.001770795, 0.001747895, 0.001806108, -0.001150273, -0.0008761984, -9.81811, 0, 0, 31.50883, 1, 1, 1000, 1000
 119849541, 1, 0.001618669, 0.002086571, 0.001694835, -0.001909262, -0.001215136, -9.817249, 0, 0, 31.50883, 1, 1, 760, 800
 119889525, 0, 0.001733683, 0.001806944, 0.001732396, -2.876393E-05, -0.001819891, -9.816673, 0, 0, 31.51063, 1, 1, 1000, 1000
 119889525, 1, 0.001781175, 0.001909971, 0.001613028, -0.00103688, -0.002554727, -9.816873, 0, 0, 31.51063, 1, 1, 760, 800
 119929509, 0, 0.001659742, 0.00172142, 0.001706844, -0.0004975398, 6.166858E-06, -9.817089, 0, 0, 31.51242, 1, 1, 1000, 1000
 119929509, 1, 0.00179724, 0.001926752, 0.00183284, -0.0001872396, -0.002857764, -9.81732, 0, 0, 31.51242, 1, 1, 760, 800
 119969493, 0, 0.001801881, 0.001816568, 0.001788343, -0.001201669, -0.001879034, -9.817555, 0, 0, 31.51422, 1, 1, 1000, 1000
 119969493, 1, 0.001870255, 0.001963724, 0.001569087, -0.002103722, -0.003916944, -9.820401, 0, 0, 31.51422, 1, 1, 760, 800
 120009477, 0, 0.001758605, 0.001712595, 0.001725774, -0.00101274, -0.001529836, -9.81764, 0, 0, 31.51602, 1, 1, 1000, 1000
 120009477, 1, 0.001710487, 0.001709183, 0.001842328, -0.001834603, -0.001778371, -9.817451, 0, 0, 31.51602, 1, 1, 760, 800
 120049461, 0, 0.001706778, 0.001643785, 0.001678538, -0.001124315, -0.001099678, -9.817594, 0, 0, 31.51782, 1, 1, 1000, 1000
 120049461, 1, 0.001651936, 0.00186314, 0.001895936, -0.002619229, -0.002758704, -9.81963, 0, 0, 31.51782, 1, 1, 760, 800
 120089445, 0, 0.001745833, 0.001674356, 0.001670902, -0.0005518586, -0.001737209, -9.818356, 0, 0, 31.51962, 1, 1, 1000, 1000
 120089445, 1, 0.001602085, 0.001906652, 0.001514095, 0.001753701, -0.001859241, -9.817156, 0, 0, 31.51962, 1, 1, 760, 800
 120129429, 0, 0.001758768, 0.001675117, 0.001795471, -0.002228436, -0.001108246, -9.816722, 0, 0, 31.52141, 1, 1, 1000, 1000
 120129429, 1, 0.001758849, 0.001850665, 0.00174359, -0.001986524, 0.0006609061, -9.817452, 0, 0, 31.52141, 1, 1, 760, 800
 120169413, 0, 0.00178732, 0.001709892, 0.001694017, -0.001815185, -0.001357239, -9.817596, 0, 0, 31.52321, 1, 1, 1000, 1000
 120169413, 1, 0.001701444, 0.001791263, 0.001853943, 0.0009694565, -0.002413435, -9.817243, 0, 0, 31.52321, 1, 1, 760, 800
 120209397, 0, 0.001635305, 0.001716351, 0.001678286, -0.001429564, -0.0005894586, -9.817142, 0, 0, 31.52501, 1, 1, 1000, 1000
 120209397, 1, 0.001744752, 0.001847564, 0.001721767, -0.001475799, 0.0001793647, -9.815907, 0, 0, 31.52501, 1, 1, 760, 800
 120249381, 0, 0.001802549, 0.001728917, 0.001736259, -0.001489428, -0.002280586, -9.818012, 0, 0, 31.5268, 1, 1, 1000, 1000
 120249381, 1, 0.001601483, 0.001495563, 0.001871325, 0.000976452, 0.001584104, -9.814253, 0, 0, 31.5268, 1, 1, 760, 800
 120289365, 0, 0.001727809, 0.001733664, 0.001732378, -0.0009080952, -0.0006591114, -9.817492, 0, 0, 31.5286, 1, 1, 1000, 1000
 120289365, 1, 0.001682783, 0.001722551, 0.00157201, -0.0008238605, -0.003065573, -9.816307, 0, 0, 31.5286, 1, 1, 760, 800
 120329349, 0, 0.00171511, 0.001680017, 0.0016949, -0.000716841, -0.001741608, -9.817458, 0, 0, 31.5304, 1, 1, 1000, 1000
 120329349, 1, 0.001692797, 0.001892407, 0.001762472, 0.001731847, -0.001250627, -9.819654, 0, 0, 31.5304, 1, 1, 760, 800
 120369333, 0, 0.001708648, 0.001761272, 0.001781432, -0.00264079, -0.000540566, -9.816921, 0, 0, 31.53219, 1, 1, 1000, 1000
 120369333, 1, 0.001706327, 0.001933267, 0.001515715, -0.002015284, -0.0007527773, -9.818689, 0, 0, 31.53219, 1, 1, 760, 800
 120409317, 0, 0.001766315, 0.001738069, 0.001739139, -0.0003190254, -0.001608408, -9.817081, 0, 0, 31.53399, 1, 1, 1000, 1000
 120409317, 1, 0.001892519, 0.001835775, 0.001558463, -0.001020499, -0.0007595284, -9.818162, 0, 0, 31.53399, 1, 1, 760, 800
 120449301, 0, 0.001719283, 0.001667937, 0.00174626, -0.000311646, -0.001829276, -9.817683, 0, 0, 31.53578, 1, 1, 1000, 1000
 120449301, 1, 0.00188329, 0.001553922, 0.001634467, -0.001303106, -0.0007438641, -9.817541, 0, 0, 31.53578, 1, 1, 760, 800
 120489285, 0, 0.00180781, 0.001722554, 0.001692559, -0.001359392, -0.001166763, -9.816689, 0, 0, 31.53758, 1, 1, 1000, 1000
 120489285, 1, 0.001644922, 0.001886876, 0.001967225, -0.001713702, -0.001114915, -9.81854, 0, 0, 31.53758, 1, 1, 760, 800
 120529269, 0, 0.001832187, 0.001761602, 0.00176907, 9.003304E-05, -0.0004986636, -9.818031, 0, 0, 31.53937, 1, 1, 1000, 1000
 120529269, 1, 0.001883955, 0.001679704, 0.001824667, -0.001108965, -0.001628832, -9.8178, 0, 0, 31.53937, 1, 1, 760, 800
 120569253, 0, 0.001720579, 0.001731064, 0.001751331, -0.001112219, -0.001728976, -9.817558, 0, 0, 31.54117, 1, 1, 1000, 1000
 120569253, 1, 0.001613407, 0.001928975, 0.001704287, -0.0005262734, -0.002297682, -9.817539, 0, 0, 31.54117, 1, 1, 760, 800
 120609237, 0, 0.001688084, 0.001744675, 0.001774151, -8.204583E-05, -0.002324281, -9.818933, 0, 0, 31.54296, 1, 1, 1000, 1000
 120609237, 1, 0.001487918, 0.001677312, 0.001784823, -0.002654002, -0.001225493, -9.817503, 0, 0, 31.54296, 1, 1, 760, 800
 120649221, 0, 0.001725802, 0.001753092, 0.001720569, -0.001603836, -0.001643693, -9.816631, 0, 0, 31.54476, 1, 1, 1000, 1000
 120649221, 1, 0.00172228, 0.002014298, 0.001893013, -0.001298006, -0.003148073, -9.816101, 0, 0, 31.54476, 1, 1, 760, 800
 120689205, 0, 0.001742888, 0.001757835, 0.001799018, -4.990163E-05, -0.0006714342, -9.817624, 0, 0, 31.54655, 1, 1, 1000, 1000
 120689205, 1, 0.001808792, 0.001677365, 0.001595172, 8.028032E-05, -0.001897455, -9.819083, 0, 0, 31.54655, 1, 1, 760, 800
 120729189, 0, 0.001775886, 0.001747164, 0.001710869, -0.0009083116, -0.001492327, -9.817249, 0, 0, 31.54834, 1, 1, 1000, 1000
 120729189, 1, 0.001710914, 0.001614044, 0.001568058, -0.0009592848, -0.002041266, -9.817416, 0, 0, 31.54834, 1, 1, 760, 800
 120769173, 0, 0.00179122, 0.001702638, 0.001781725, -0.001622462, -0.00063352, -9.817819, 0, 0, 31.55014, 1, 1, 1000, 1000
 120769173, 1, 0.001725071, 0.001744773, 0.001654278, -0.001962414, 0.001597738, -9.816963, 0, 0, 31.55014, 1, 1, 760, 800
 120809157, 0, 0.001686606, 0.001773848, 0.001754507, -0.001685317, -0.001088521, -9.818092, 0, 0, 31.55193, 1, 1, 1000, 1000
 120809157, 1, 0.001851795, 0.001635457, 0.001826742, -0.001249827, -0.0004232662, -9.818781, 0, 0, 31.55193, 1, 1, 760, 800
 120849141, 0, 0.001723971, 0.001735731, 0.001730148, -0.002502423, -0.0002220862, -9.818504, 0, 0, 31.55372, 1, 1, 1000, 1000
 120849141, 1, 0.001905227, 0.001766487, 0.001761014, -0.0001079397, -0.003332608, -9.817009, 0, 0, 31.55372, 1, 1, 760, 800
 120889125, 0, 0.001742973, 0.00182504, 0.001723625, 0.0003481611, -0.0008907499, -9.817769, 0, 0, 31.55547, 1, 1, 1000, 1000
 120889125, 1, 0.001567467, 0.001692281, 0.001770766, -0.0009169158, 6.946873E-05, -9.817926, 0, 0, 31.55552, 1, 1, 760, 800
 120929109, 0, 0.001801495, 0.001715657, 0.001698056, -0.0005015098, -0.0009890874, -9.818071, 0, 0, 31.55726, 1, 1, 1000, 1000
 120929109, 1, 0.0013931, 0.001897864, 0.00176166, -0.001130378, -0.002077059, -9.81602, 0, 0, 31.55731, 1, 1, 760, 800
 120969093, 0, 0.001687237, 0.001689811, 0.001728382, -0.001375769, -0.001657245, -9.817439, 0, 0, 31.55906, 1, 1, 1000, 1000
 120969093, 1, 0.001985704, 0.001657138, 0.001638968, -0.0009574794, -0.0008659207, -9.818546, 0, 0, 31.5591, 1, 1, 760, 800
 121009077, 0, 0.001776333, 0.001819081, 0.001706465, -0.001860523, -0.001430815, -9.81642, 0, 0, 31.56085, 1, 1, 1000, 1000
 121009077, 1, 0.001864891, 0.00183481, 0.001696501, -0.002061753, 0.0002400668, -9.817321, 0, 0, 31.56089, 1, 1, 760, 800
 121049061, 0, 0.001756188, 0.001717527, 0.001646437, -0.001647858, -0.0007637577, -9.817052, 0, 0, 31.56264, 1, 1, 1000, 1000
 121049061, 1, 0.001688932, 0.001720038, 0.001767094, -0.003554084, 0.0007052411, -9.818745, 0, 0, 31.56268, 1, 1, 760, 800
 121089045, 0, 0.001723198, 0.001730376, 0.001790597, -0.001211387, -0.0007707098, -9.816498, 0, 0, 31.56443, 1, 1, 1000, 1000
 121089045, 1, 0.001851406, 0.001750517, 0.001862993, -0.001360291, -0.0003236832, -9.81645, 0, 0, 31.56448, 1, 1, 760, 800
 121129029, 0, 0.001821031, 0.0018175, 0.001749951, -0.0004866653, -0.001718814, -9.818029, 0, 0, 31.56622, 1, 1, 1000, 1000
 121129029, 1, 0.001717798, 0.00165601, 0.001608649, -0.003051632, -0.001703554, -9.819451, 0, 0, 31.56627, 1, 1, 760, 800
 121169013, 0, 0.001749957, 0.001713468, 0.001792652, -0.0005758198, -0.0006496441, -9.816133, 0, 0, 31.56801, 1, 1, 1000, 1000
 121169013, 1, 0.001819205, 0.001529621, 0.001701294, -0.0008237705, -0.00131186, -9.818598, 0, 0, 31.56806, 1, 1, 760, 800
 121208997, 0, 0.001692923, 0.001698776, 0.001745417, 3.967263E-06, -0.001274744, -9.818256, 0, 0, 31.56981, 1, 1, 1000, 1000
 121208997, 1, 0.001460546, 0.001849361, 0.001860012, -0.002467626, -6.629325E-05, -9.817235, 0, 0, 31.56981, 1, 1, 760, 800
 121248981, 0, 0.001697506, 0.001758286, 0.001792902, -0.0006198698, -0.000704016, -9.81755, 0, 0, 31.57159, 1, 1, 1000, 1000
 121248981, 1, 0.001752871, 0.001553579, 0.001908184, -0.0001930081, -0.0006914167, -9.814614, 0, 0, 31.57159, 1, 1, 760, 800
 121288965, 0, 0.001707087, 0.001763941, 0.001840982, -0.0005384085, -0.0003653633, -9.819421, 0, 0, 31.57339, 1, 1, 1000, 1000
 121288965, 1, 0.001477304, 0.002084312, 0.001837324, -0.003495337, -0.0008974702, -9.817854, 0, 0, 31.57339, 1, 1, 760, 800
 121328949, 0, 0.001770844, 0.001767353, 0.001702085, -0.0005919536, -0.001047984, -9.817423, 0, 0, 31.57518, 1, 1, 1000, 1000
 121328949, 1, 0.001716601, 0.001902539, 0.001515285, -0.0007697504, -0.001578946, -9.817556, 0, 0, 31.57518, 1, 1, 760, 800
 121368933, 0, 0.001765718, 0.001703965, 0.001734004, -0.0003848937, -0.001079993, -9.816756, 0, 0, 31.57697, 1, 1, 1000, 1000
 121368933, 1, 0.001654415, 0.001838445, 0.001898619, -9.510736E-05, 0.0003777594, -9.819125, 0, 0, 31.57697, 1, 1, 760, 800
 121408917, 0, 0.001809037, 0.001814044, 0.001680474, -0.0008176669, 0.0001672843, -9.816503, 0, 0, 31.57875, 1, 1, 1000, 1000
 121408917, 1, 0.001442707, 0.001696024, 0.001831652, -0.0009023527, -0.003535226, -9.815356, 0, 0, 31.57875, 1, 1, 760, 800
 121448901, 0, 0.001655601, 0.001751609, 0.001681088, -0.0003601774, -0.0002350173, -9.81846, 0, 0, 31.58054, 1, 1, 1000, 1000
 121448901, 1, 0.001655746, 0.002027808, 0.001668543, 0.0009552512, -0.002489269, -9.817533, 0, 0, 31.58054, 1, 1, 760, 800
 121488885, 0, 0.001695708, 0.001730307, 0.001711566, -0.0009904193, -0.001724285, -9.818038, 0, 0, 31.58233, 1, 1, 1000, 1000
 121488885, 1, 0.001866255, 0.001757448, 0.001765204, -0.002830585, -1.668018E-05, -9.816705, 0, 0, 31.58233, 1, 1, 760, 800
 121528869, 0, 0.001689382, 0.001824279, 0.001748516, -8.375058E-05, -8.51255E-06, -9.817085, 0, 0, 31.58412, 1, 1, 1000, 1000
 121528869, 1, 0.001388863, 0.001678875, 0.001801709, -0.0006975923, -0.002313067, -9.81822, 0, 0, 31.58412, 1, 1, 760, 800
 121568853, 0, 0.001746403, 0.001698221, 0.001771632, -0.0009264556, -0.0005745069, -9.817249, 0, 0, 31.58591, 1, 1, 1000, 1000
 121568853, 1, 0.001771383, 0.001766785, 0.001585099, -0.0002809453, -0.0003325788, -9.816183, 0, 0, 31.58591, 1, 1, 760, 800
 121608837, 0, 0.001847046, 0.001775577, 0.001860423, -0.001326682, -0.0005024952, -9.81728, 0, 0, 31.5877, 1, 1, 1000, 1000
 121608837, 1, 0.001423525, 0.001845513, 0.001839576, -0.001099157, -0.0002418479, -9.818121, 0, 0, 31.5877, 1, 1, 760, 800
 121648821, 0, 0.001836914, 0.001817264, 0.001766443, -0.00165531, -0.0009169459, -9.817895, 0, 0, 31.58949, 1, 1, 1000, 1000
 121648821, 1, 0.001763297, 0.001842795, 0.001615713, -0.002492766, -0.003729767, -9.81708, 0, 0, 31.58944, 1, 1, 760, 800
 121688805, 0, 0.001700343, 0.001733525, 0.001712449, -0.001576853, -0.001076174, -9.816805, 0, 0, 31.59127, 1, 1, 1000, 1000
 121688805, 1, 0.001633307, 0.00178615, 0.001748363, -0.0007613779, -0.001144789, -9.81673, 0, 0, 31.59123, 1, 1, 760, 800
 121728789, 0, 0.001724276, 0.001692526, 0.001731222, -0.0006818221, -0.0005277161, -9.816706, 0, 0, 31.59306, 1, 1, 1000, 1000
 121728789, 1, 0.001841484, 0.002013871, 0.001729189, -0.001703691, -0.0007917394, -9.814844, 0, 0, 31.59302, 1, 1, 760, 800
 121768773, 0, 0.001691434, 0.001715602, 0.001787813, -0.001120137, -0.001275404, -9.817657, 0, 0, 31.59485, 1, 1, 1000, 1000
 121768773, 1, 0.001867199, 0.001867307, 0.001484569, 3.461411E-05, -0.000945283, -9.819448, 0, 0, 31.59481, 1, 1, 760, 800
 121808757, 0, 0.001786103, 0.001784361, 0.001749159, -0.0007790434, -0.002011096, -9.817307, 0, 0, 31.59664, 1, 1, 1000, 1000
 121808757, 1, 0.001859416, 0.001779409, 0.001833386, -0.003274968, -0.0005836652, -9.819099, 0, 0, 31.59659, 1, 1, 760, 800
 121848741, 0, 0.001734451, 0.001694113, 0.001804326, -0.0003727227, -0.002528867, -9.818798, 0, 0, 31.59842, 1, 1, 1000, 1000
 121848741, 1, 0.001716143, 0.001785573, 0.001834783, 0.0001464255, -0.0009263051, -9.815908, 0, 0, 31.59838, 1, 1, 760, 800
 121889558, 0, 0.001764355, 0.001685434, 0.001705688, -0.001459626, -0.001476633, -9.817455, 0, 0, 31.60026, 1, 1, 1000, 1000
 121889558, 1, 0.001597614, 0.001774217, 0.001829945, -0.002607024, 0.001299257, -9.817132, 0, 0, 31.60026, 1, 1, 760, 800
 121929542, 0, 0.001773673, 0.001711127, 0.001752459, -0.001275606, -0.001207963, -9.817771, 0, 0, 31.60204, 1, 1, 1000, 1000
 121929542, 1, 0.001772636, 0.001769734, 0.00179886, -0.0006634353, 0.002013526, -9.815713, 0, 0, 31.60204, 1, 1, 760, 800
 121969526, 0, 0.001715025, 0.00172628, 0.001714102, -0.001362848, -0.001768646, -9.817379, 0, 0, 31.60383, 1, 1, 1000, 1000
 121969526, 1, 0.001729068, 0.001897614, 0.001673192, -0.004046758, -0.0007016484, -9.817672, 0, 0, 31.60383, 1, 1, 760, 800
 122009510, 0, 0.001735964, 0.001788018, 0.00176386, -0.0008452213, -0.0005775323, -9.816308, 0, 0, 31.60561, 1, 1, 1000, 1000
 122009510, 1, 0.00151519, 0.001771834, 0.001803709, -0.003899333, -0.001867278, -9.819123, 0, 0, 31.60561, 1, 1, 760, 800
 122049494, 0, 0.001683798, 0.001743005, 0.001713989, -0.001395801, -0.001094497, -9.817142, 0, 0, 31.6074, 1, 1, 1000, 1000
 122049494, 1, 0.001923012, 0.001854209, 0.001794116, -0.002813758, -0.0007899805, -9.816414, 0, 0, 31.6074, 1, 1, 760, 800
 122089478, 0, 0.001818386, 0.001749425, 0.001795769, -0.001657521, -0.001272593, -9.817634, 0, 0, 31.60919, 1, 1, 1000, 1000
 122089478, 1, 0.001930938, 0.001729335, 0.001719222, 0.0002247863, -0.003110833, -9.816597, 0, 0, 31.60919, 1, 1, 760, 800
 122129462, 0, 0.001780002, 0.001752249, 0.001704941, 0.0001488306, -0.000840374, -9.817793, 0, 0, 31.61097, 1, 1, 1000, 1000
 122129462, 1, 0.001794314, 0.001947069, 0.001795053, -0.001643607, 0.0002182563, -9.816796, 0, 0, 31.61097, 1, 1, 760, 800
 122169446, 0, 0.001806901, 0.001735155, 0.001816992, -0.0007561441, -0.00238517, -9.817749, 0, 0, 31.61276, 1, 1, 1000, 1000
 122169446, 1, 0.002000679, 0.001771352, 0.001649848, -0.0004888235, 0.00260911, -9.818443, 0, 0, 31.61276, 1, 1, 760, 800
 122209430, 0, 0.001746396, 0.001746348, 0.001726649, -0.002081388, -0.0005049673, -9.817481, 0, 0, 31.61454, 1, 1, 1000, 1000
 122209430, 1, 0.001617079, 0.001634199, 0.002071686, 0.001682401, -0.004524815, -9.817072, 0, 0, 31.61454, 1, 1, 760, 800
 122249414, 0, 0.001787646, 0.001760317, 0.001691203, -0.0007546017, -0.0009980961, -9.817308, 0, 0, 31.61633, 1, 1, 1000, 1000
 122249414, 1, 0.001759657, 0.001981021, 0.001672944, -0.0001791668, -0.00418181, -9.817911, 0, 0, 31.61633, 1, 1, 760, 800
 122289398, 0, 0.001726625, 0.0018118, 0.001770151, -0.00106276, -0.001291136, -9.817778, 0, 0, 31.61811, 1, 1, 1000, 1000
 122289398, 1, 0.001803612, 0.001683588, 0.001611695, -0.001371546, 0.001227562, -9.814299, 0, 0, 31.61811, 1, 1, 760, 800
 122329382, 0, 0.0017865, 0.001790674, 0.001740561, -0.001357226, -0.0009552253, -9.817371, 0, 0, 31.61989, 1, 1, 1000, 1000
 122329382, 1, 0.001856521, 0.001720154, 0.001991988, 0.0009620965, -0.001852036, -9.819695, 0, 0, 31.61989, 1, 1, 760, 800
 122369366, 0, 0.001772404, 0.001793536, 0.001791087, -0.0005802513, -0.001425713, -9.817451, 0, 0, 31.62168, 1, 1, 1000, 1000
 122369366, 1, 0.001756478, 0.00171367, 0.001788719, -0.002509569, -0.0005240978, -9.815249, 0, 0, 31.62168, 1, 1, 760, 800
 122409350, 0, 0.001764915, 0.00169412, 0.001767639, -0.0003985215, -0.0006666012, -9.817457, 0, 0, 31.62346, 1, 1, 1000, 1000
 122409350, 1, 0.001492637, 0.001756073, 0.001774346, -0.002046629, 0.0002781565, -9.816048, 0, 0, 31.62346, 1, 1, 760, 800
 122449334, 0, 0.001766435, 0.001749362, 0.001821022, -0.0001186837, -0.0009794347, -9.818354, 0, 0, 31.62525, 1, 1, 1000, 1000
 122449334, 1, 0.001876301, 0.001837978, 0.001653793, 0.0009890338, -0.000412932, -9.818316, 0, 0, 31.62525, 1, 1, 760, 800
 122489318, 0, 0.001762366, 0.001687964, 0.001785257, -0.001584808, -0.001627551, -9.817331, 0, 0, 31.62703, 1, 1, 1000, 1000
 122489318, 1, 0.001439947, 0.001689875, 0.001696091, -0.002060203, -0.0004842097, -9.814181, 0, 0, 31.62703, 1, 1, 760, 800
 122529302, 0, 0.001755844, 0.001781896, 0.001736319, -0.0004798832, -0.001052755, -9.818363, 0, 0, 31.62881, 1, 1, 1000, 1000
 122529302, 1, 0.001737181, 0.001443525, 0.001520206, 0.0007144541, -0.001084315, -9.818623, 0, 0, 31.62881, 1, 1, 760, 800
 122569286, 0, 0.001759903, 0.001760956, 0.001676171, -0.00094435, -0.0004587035, -9.81846, 0, 0, 31.63059, 1, 1, 1000, 1000
 122569286, 1, 0.00165557, 0.00185028, 0.001709082, 0.0002456942, -0.004418675, -9.818319, 0, 0, 31.63059, 1, 1, 760, 800
 122609270, 0, 0.001777946, 0.001780638, 0.001720522, -0.0008310654, -0.0007474846, -9.816997, 0, 0, 31.63238, 1, 1, 1000, 1000
 122609270, 1, 0.001807099, 0.001720032, 0.001808805, -0.001346129, -0.003334043, -9.817679, 0, 0, 31.63238, 1, 1, 760, 800
 122649254, 0, 0.001742207, 0.001727524, 0.001769741, -0.001004904, -0.0003321377, -9.816566, 0, 0, 31.63416, 1, 1, 1000, 1000
 122649254, 1, 0.0016567, 0.00168416, 0.001915459, -0.002075555, 3.989713E-06, -9.819187, 0, 0, 31.63416, 1, 1, 760, 800
 122689238, 0, 0.001821118, 0.001684165, 0.001791619, -0.0009049381, -0.001060202, -9.816827, 0, 0, 31.63594, 1, 1, 1000, 1000
 122689238, 1, 0.001740748, 0.001987175, 0.001813536, 0.00163158, -0.000769868, -9.817282, 0, 0, 31.63594, 1, 1, 760, 800
 122729222, 0, 0.001777578, 0.001796358, 0.00178997, -0.0008147467, -0.002357076, -9.817641, 0, 0, 31.63772, 1, 1, 1000, 1000
 122729222, 1, 0.001785762, 0.00158664, 0.001926785, 0.002385742, -0.002965261, -9.817863, 0, 0, 31.63772, 1, 1, 760, 800
 122769206, 0, 0.001685008, 0.001760419, 0.001781331, -0.0009826289, -0.001053128, -9.817254, 0, 0, 31.6395, 1, 1, 1000, 1000
 122769206, 1, 0.001637597, 0.002038528, 0.001679559, 0.002372233, -0.001198897, -9.819567, 0, 0, 31.6395, 1, 1, 760, 800
 122809190, 0, 0.001836787, 0.001889213, 0.001770335, -0.0009945501, -0.001222273, -9.817598, 0, 0, 31.64128, 1, 1, 1000, 1000
 122809190, 1, 0.001838824, 0.001736744, 0.001841097, 0.000391396, -0.001855424, -9.816916, 0, 0, 31.64128, 1, 1, 760, 800
 122849174, 0, 0.001749169, 0.001772171, 0.001778385, -0.0006475945, -0.00136192, -9.816898, 0, 0, 31.64307, 1, 1, 1000, 1000
 122849174, 1, 0.001736833, 0.001752593, 0.001907219, -0.0002456705, -0.0009275313, -9.819547, 0, 0, 31.64307, 1, 1, 760, 800
 122889158, 0, 0.001710384, 0.001746216, 0.001751741, -2.434901E-05, -0.001980547, -9.818472, 0, 0, 31.64485, 1, 1, 1000, 1000
 122889158, 1, 0.001565748, 0.001973571, 0.001805352, 0.0007824026, -0.0004376557, -9.814989, 0, 0, 31.64485, 1, 1, 760, 800
 122929142, 0, 0.00174552, 0.001799166, 0.001734214, -0.000951177, -0.0010068, -9.817563, 0, 0, 31.64663, 1, 1, 1000, 1000
 122929142, 1, 0.001771328, 0.00181269, 0.001832482, -0.000703071, 0.0005039502, -9.817876, 0, 0, 31.64663, 1, 1, 760, 800
 122969126, 0, 0.001757324, 0.001732345, 0.001789703, -0.001201685, -0.001302775, -9.816762, 0, 0, 31.64837, 1, 1, 1000, 1000
 122969126, 1, 0.001961055, 0.001689637, 0.00160859, -0.001214826, -0.001696654, -9.816889, 0, 0, 31.64841, 1, 1, 760, 800
 123009110, 0, 0.001840905, 0.001791057, 0.001759036, -0.001737448, -0.0009459442, -9.816703, 0, 0, 31.65014, 1, 1, 1000, 1000
 123009110, 1, 0.001679161, 0.001856984, 0.001890636, 0.001360968, -0.0007471214, -9.817984, 0, 0, 31.65019, 1, 1, 760, 800
 123049094, 0, 0.00178341, 0.001769992, 0.001767159, -0.0003386025, -0.0004549139, -9.817045, 0, 0, 31.65192, 1, 1, 1000, 1000
 123049094, 1, 0.001696179, 0.00188935, 0.001575224, -0.0006584796, -0.002138212, -9.815599, 0, 0, 31.65197, 1, 1, 760, 800
 123089078, 0, 0.00180623, 0.001767756, 0.001657589, -0.000944294, 0.0001645064, -9.818136, 0, 0, 31.6537, 1, 1, 1000, 1000
 123089078, 1, 0.001765175, 0.001724073, 0.001633441, 0.0002241157, -0.0006635246, -9.817376, 0, 0, 31.65375, 1, 1, 760, 800
 123129062, 0, 0.001696638, 0.001784881, 0.001705741, -0.001819846, -0.001631639, -9.817514, 0, 0, 31.65548, 1, 1, 1000, 1000
 123129062, 1, 0.001674444, 0.001746557, 0.001649649, -0.001623424, -0.0007600607, -9.813993, 0, 0, 31.65553, 1, 1, 760, 800
 123169046, 0, 0.001844378, 0.001754841, 0.001849029, -0.0007302341, -0.0004572452, -9.817935, 0, 0, 31.65726, 1, 1, 1000, 1000
 123169046, 1, 0.001643801, 0.001736365, 0.001703824, 0.001126866, -0.002157362, -9.8174, 0, 0, 31.65731, 1, 1, 760, 800
 123209030, 0, 0.001759269, 0.001762386, 0.001847599, -0.0005026135, -0.00224186, -9.817824, 0, 0, 31.65904, 1, 1, 1000, 1000
 123209030, 1, 0.001779307, 0.00214669, 0.002033735, -0.003830898, -0.00113112, -9.816685, 0, 0, 31.65909, 1, 1, 760, 800
 123249014, 0, 0.001744055, 0.001748432, 0.001809086, -0.0008614612, 3.108793E-05, -9.817563, 0, 0, 31.66082, 1, 1, 1000, 1000
 123249014, 1, 0.001576811, 0.001979827, 0.001470712, -0.000292868, -0.0008321411, -9.819073, 0, 0, 31.66086, 1, 1, 760, 800
 123288998, 0, 0.001748626, 0.001757296, 0.001677279, -0.0007941015, -0.001623963, -9.817164, 0, 0, 31.6626, 1, 1, 1000, 1000
 123288998, 1, 0.001877038, 0.001903067, 0.001738304, -0.001341238, -0.001037041, -9.820032, 0, 0, 31.6626, 1, 1, 760, 800
 123328982, 0, 0.00180604, 0.00181296, 0.001725256, -0.0008797207, -0.001923443, -9.818939, 0, 0, 31.66438, 1, 1, 1000, 1000
 123328982, 1, 0.001720268, 0.001597633, 0.001809575, -0.001443674, -0.0005253902, -9.819192, 0, 0, 31.66438, 1, 1, 760, 800
 123368966, 0, 0.001760164, 0.001861498, 0.00176111, -0.0009699272, -0.001193984, -9.817267, 0, 0, 31.66615, 1, 1, 1000, 1000
 123368966, 1, 0.001574469, 0.001827254, 0.001706312, -0.001448478, -0.00243936, -9.817993, 0, 0, 31.66615, 1, 1, 760, 800
 123408950, 0, 0.001714497, 0.001741167, 0.001816497, -0.001071584, -0.0008636409, -9.817568, 0, 0, 31.66793, 1, 1, 1000, 1000
 123408950, 1, 0.001980089, 0.001619197, 0.001523687, -0.0003358821, 0.0003495085, -9.816397, 0, 0, 31.66793, 1, 1, 760, 800
 123448934, 0, 0.001774409, 0.001734485, 0.001765634, -0.0003709439, -0.0005309556, -9.817371, 0, 0, 31.66971, 1, 1, 1000, 1000
 123448934, 1, 0.001731804, 0.001918107, 0.002055046, -0.0001256077, -0.001417451, -9.814739, 0, 0, 31.66971, 1, 1, 760, 800
 123488918, 0, 0.001723102, 0.00177527, 0.001777352, -0.001162896, -0.0006471265, -9.817969, 0, 0, 31.67149, 1, 1, 1000, 1000
 123488918, 1, 0.001951842, 0.001888835, 0.001878535, -0.0003353953, -0.001067585, -9.816896, 0, 0, 31.67149, 1, 1, 760, 800
 123528902, 0, 0.001798767, 0.001747392, 0.001691262, -0.001471452, -0.0006679658, -9.817068, 0, 0, 31.67326, 1, 1, 1000, 1000
 123528902, 1, 0.001563723, 0.001821629, 0.002047183, -0.001433416, -0.0006273338, -9.816327, 0, 0, 31.67326, 1, 1, 760, 800
 123568886, 0, 0.001830378, 0.001834954, 0.001735544, -3.376409E-06, -0.001886872, -9.817949, 0, 0, 31.67504, 1, 1, 1000, 1000
 123568886, 1, 0.001823871, 0.001759204, 0.001719839, -0.002485303, -0.002751246, -9.817921, 0, 0, 31.67504, 1, 1, 760, 800
 123608870, 0, 0.001863508, 0.001769834, 0.001778442, -0.001142705, -0.0008069272, -9.81673, 0, 0, 31.67682, 1, 1, 1000, 1000
 123608870, 1, 0.00180788, 0.001558082, 0.001807904, -0.001404746, 0.001042885, -9.817085, 0, 0, 31.67682, 1, 1, 760, 800
 123648854, 0, 0.001857656, 0.001718158, 0.001799965, -0.001612051, -0.0002206913, -9.817184, 0, 0, 31.67859, 1, 1, 1000, 1000
 123648854, 1, 0.00176454, 0.001644711, 0.001689162, -0.0003892721, -0.001771982, -9.816051, 0, 0, 31.67859, 1, 1, 760, 800
 123688838, 0, 0.001836692, 0.001762053, 0.001810459, 0.0002226817, -0.001682188, -9.817318, 0, 0, 31.68037, 1, 1, 1000, 1000
 123688838, 1, 0.001895515, 0.001871549, 0.001797047, -0.0008158323, 0.0006008465, -9.818665, 0, 0, 31.68037, 1, 1, 760, 800
 123728822, 0, 0.001762164, 0.001801635, 0.001783371, -0.00072896, -0.00127452, -9.818083, 0, 0, 31.68215, 1, 1, 1000, 1000
 123728822, 1, 0.001778823, 0.001943411, 0.001771892, -0.0006887253, -0.002705345, -9.820008, 0, 0, 31.6821, 1, 1, 760, 800
 123768806, 0, 0.001822085, 0.001809108, 0.001812996, -0.001007251, -0.0004648998, -9.817904, 0, 0, 31.68392, 1, 1, 1000, 1000
 123768806, 1, 0.001725641, 0.001936084, 0.002078358, -0.002057689, -0.001078652, -9.817711, 0, 0, 31.68388, 1, 1, 760, 800
 123808790, 0, 0.001827533, 0.001771985, 0.001791495, -0.002139073, 0.0001251627, -9.818367, 0, 0, 31.6857, 1, 1, 1000, 1000
 123808790, 1, 0.001969411, 0.001683529, 0.001629025, -0.003475594, -0.001488958, -9.816092, 0, 0, 31.68565, 1, 1, 760, 800
 123848774, 0, 0.001778052, 0.001806868, 0.001784204, -0.0006123917, -0.001055923, -9.817533, 0, 0, 31.68747, 1, 1, 1000, 1000
 123848774, 1, 0.001856727, 0.001981744, 0.00192455, 0.001553041, -4.345971E-05, -9.817352, 0, 0, 31.68743, 1, 1, 760, 800
 123888758, 0, 0.001791767, 0.0017741, 0.001939783, -0.001258144, -0.000914642, -9.817858, 0, 0, 31.68925, 1, 1, 1000, 1000
 123888758, 1, 0.00204232, 0.001928729, 0.001609211, -0.001504472, 0.001199056, -9.818308, 0, 0, 31.6892, 1, 1, 760, 800
 123928742, 0, 0.001733099, 0.00170517, 0.00179994, -0.001353931, -0.001284196, -9.817619, 0, 0, 31.69102, 1, 1, 1000, 1000
 123928742, 1, 0.001797566, 0.001740446, 0.001878055, 0.0003382705, -0.002072924, -9.817225, 0, 0, 31.69098, 1, 1, 760, 800
 123969559, 0, 0.00176123, 0.001821388, 0.001721849, -0.00162827, -0.001285082, -9.817345, 0, 0, 31.69284, 1, 1, 1000, 1000
 123969559, 1, 0.001635345, 0.001686753, 0.001996041, -0.0008991569, -0.0003793486, -9.818669, 0, 0, 31.69284, 1, 1, 760, 800
 124009543, 0, 0.001735579, 0.001784879, 0.001752371, -0.000826082, -0.0007158348, -9.816646, 0, 0, 31.69461, 1, 1, 1000, 1000
 124009543, 1, 0.001595455, 0.00202097, 0.002072813, -0.001140442, -0.001324048, -9.818579, 0, 0, 31.69461, 1, 1, 760, 800
 124049527, 0, 0.001859343, 0.001824509, 0.001793688, -0.001650186, -0.001247286, -9.818048, 0, 0, 31.69639, 1, 1, 1000, 1000
 124049527, 1, 0.001782555, 0.001825094, 0.001755511, -0.0009600137, 2.903281E-05, -9.815928, 0, 0, 31.69639, 1, 1, 760, 800
 124089511, 0, 0.001752039, 0.001801617, 0.001787359, -0.001061215, -0.0003782246, -9.817562, 0, 0, 31.69816, 1, 1, 1000, 1000
 124089511, 1, 0.001631784, 0.001668637, 0.001752688, 0.000748721, -0.0001641204, -9.82025, 0, 0, 31.69816, 1, 1, 760, 800
 124129495, 0, 0.00172206, 0.00177402, 0.001787359, -0.001308385, -0.001099547, -9.818085, 0, 0, 31.69994, 1, 1, 1000, 1000
 124129495, 1, 0.001406792, 0.001787248, 0.002045905, -0.002386154, -0.003479921, -9.818909, 0, 0, 31.69994, 1, 1, 760, 800
 124169479, 0, 0.001837703, 0.001745876, 0.001796435, -0.001257131, -0.0001459111, -9.818165, 0, 0, 31.70171, 1, 1, 1000, 1000
 124169479, 1, 0.001778323, 0.001900283, 0.002010504, -0.001549796, -0.002609307, -9.815268, 0, 0, 31.70171, 1, 1, 760, 800
 124209463, 0, 0.001804909, 0.001824775, 0.001780566, -0.001293774, -0.000923602, -9.817722, 0, 0, 31.70348, 1, 1, 1000, 1000
 124209463, 1, 0.001715906, 0.001733129, 0.001695759, -0.003036003, -0.001393347, -9.818013, 0, 0, 31.70348, 1, 1, 760, 800
 124249447, 0, 0.001780165, 0.001804113, 0.001787751, -0.001006026, -0.001271786, -9.817083, 0, 0, 31.70525, 1, 1, 1000, 1000
 124249447, 1, 0.001736362, 0.001784567, 0.001725805, -0.0003621375, -0.002890302, -9.820255, 0, 0, 31.70525, 1, 1, 760, 800
 124289431, 0, 0.001780433, 0.001768442, 0.001746216, -0.001914655, -0.00161706, -9.817461, 0, 0, 31.70703, 1, 1, 1000, 1000
 124289431, 1, 0.001658037, 0.001853992, 0.001799026, -0.0005366592, -0.0001563229, -9.817848, 0, 0, 31.70703, 1, 1, 760, 800
 124329415, 0, 0.001781799, 0.001763023, 0.001735475, -0.0002343867, -0.001256837, -9.817922, 0, 0, 31.7088, 1, 1, 1000, 1000
 124329415, 1, 0.001778601, 0.001858447, 0.00173962, -0.0001238426, -0.001714549, -9.816791, 0, 0, 31.7088, 1, 1, 760, 800
 124369399, 0, 0.001766112, 0.001783233, 0.001813385, -0.0002088582, -0.002178729, -9.817013, 0, 0, 31.71057, 1, 1, 1000, 1000
 124369399, 1, 0.001742543, 0.001673572, 0.001648013, -3.790912E-06, -0.0008421776, -9.817036, 0, 0, 31.71057, 1, 1, 760, 800
 124409383, 0, 0.001785984, 0.001834392, 0.001815114, -0.00101117, 0.0002828839, -9.818738, 0, 0, 31.71234, 1, 1, 1000, 1000
 124409383, 1, 0.00164623, 0.001745079, 0.001693744, -0.003483046, -0.001800149, -9.817735, 0, 0, 31.71234, 1, 1, 760, 800
 124449367, 0, 0.001763424, 0.001840609, 0.00177653, -0.001162856, -0.001323572, -9.816853, 0, 0, 31.71412, 1, 1, 1000, 1000
 124449367, 1, 0.001743276, 0.001882866, 0.001595114, -0.0004087618, 0.0001080868, -9.818959, 0, 0, 31.71412, 1, 1, 760, 800
 124489351, 0, 0.001843733, 0.001798852, 0.001830924, -0.001746197, -0.0003746497, -9.816828, 0, 0, 31.71589, 1, 1, 1000, 1000
 124489351, 1, 0.001733138, 0.001761843, 0.001822002, -0.001090432, -0.0005882346, -9.81576, 0, 0, 31.71589, 1, 1, 760, 800
 124529335, 0, 0.001840073, 0.001799598, 0.001790964, -0.001737073, -0.0007732251, -9.816568, 0, 0, 31.71766, 1, 1, 1000, 1000
 124529335, 1, 0.001777563, 0.001907022, 0.001805574, -0.0002229936, -0.002891608, -9.819702, 0, 0, 31.71766, 1, 1, 760, 800
 124569319, 0, 0.001780695, 0.001823995, 0.0018227, -0.001708408, -0.001244268, -9.818232, 0, 0, 31.71943, 1, 1, 1000, 1000
 124569319, 1, 0.001800696, 0.002046808, 0.001815694, -0.003103222, -0.001943615, -9.815997, 0, 0, 31.71943, 1, 1, 760, 800
 124609303, 0, 0.001806187, 0.001822443, 0.00178945, -0.001247255, -0.002080709, -9.816686, 0, 0, 31.7212, 1, 1, 1000, 1000
 124609303, 1, 0.001660267, 0.001752307, 0.001864589, -0.002478599, -0.001366613, -9.819182, 0, 0, 31.7212, 1, 1, 760, 800
 124649287, 0, 0.001820136, 0.001823661, 0.001818598, -0.0006762519, -0.0003238594, -9.817171, 0, 0, 31.72297, 1, 1, 1000, 1000
 124649287, 1, 0.001949931, 0.001816427, 0.001902173, -0.001352783, 4.741232E-05, -9.818197, 0, 0, 31.72297, 1, 1, 760, 800
 124689271, 0, 0.001767395, 0.001743995, 0.001777833, -0.0009264261, -0.001494029, -9.817134, 0, 0, 31.72474, 1, 1, 1000, 1000
 124689271, 1, 0.001669434, 0.001856392, 0.001873218, -0.001079837, -0.0006394056, -9.816345, 0, 0, 31.72474, 1, 1, 760, 800
 124729255, 0, 0.001831853, 0.001833856, 0.001815651, -0.0006766966, -0.0009365667, -9.817841, 0, 0, 31.72651, 1, 1, 1000, 1000
 124729255, 1, 0.001792811, 0.001815157, 0.001631692, -0.003009798, -0.001915262, -9.815677, 0, 0, 31.72651, 1, 1, 760, 800
 124769239, 0, 0.001833058, 0.001783631, 0.001822537, -0.0003920487, -0.00207487, -9.817188, 0, 0, 31.72828, 1, 1, 1000, 1000
 124769239, 1, 0.001615414, 0.001902889, 0.001884422, -0.001722639, -0.001500973, -9.817088, 0, 0, 31.72828, 1, 1, 760, 800
 124809223, 0, 0.001823505, 0.001783823, 0.001792936, -0.0017285, -0.0006718311, -9.815712, 0, 0, 31.73005, 1, 1, 1000, 1000
 124809223, 1, 0.001740604, 0.001806712, 0.001692994, -0.0002158215, -0.003548924, -9.818011, 0, 0, 31.73005, 1, 1, 760, 800
 124849207, 0, 0.001804477, 0.001765883, 0.00177073, -0.0003245256, -0.001680021, -9.818546, 0, 0, 31.73182, 1, 1, 1000, 1000
 124849207, 1, 0.00180712, 0.001757538, 0.001508364, -0.001371231, 0.0005345721, -9.818426, 0, 0, 31.73182, 1, 1, 760, 800
 124889191, 0, 0.001828487, 0.001794505, 0.001801417, -0.001511936, -7.580723E-05, -9.816258, 0, 0, 31.73359, 1, 1, 1000, 1000
 124889191, 1, 0.001857183, 0.001613334, 0.001825854, -0.002069216, -0.0003619772, -9.817067, 0, 0, 31.73359, 1, 1, 760, 800
 124929175, 0, 0.001857076, 0.001774432, 0.001806716, -0.0003707121, -0.0003553077, -9.818274, 0, 0, 31.73536, 1, 1, 1000, 1000
 124929175, 1, 0.001872126, 0.00173132, 0.001853218, -0.0003785516, -0.00200608, -9.816344, 0, 0, 31.73536, 1, 1, 760, 800
 124969159, 0, 0.001806173, 0.001792651, 0.00181171, -0.001209443, -0.001346372, -9.817033, 0, 0, 31.73712, 1, 1, 1000, 1000
 124969159, 1, 0.001631409, 0.001875553, 0.00169015, 0.002008598, -0.001475457, -9.817137, 0, 0, 31.73712, 1, 1, 760, 800
 125009143, 0, 0.001771425, 0.001795375, 0.001790747, -0.001682808, -0.001056176, -9.817384, 0, 0, 31.73889, 1, 1, 1000, 1000
 125009143, 1, 0.001890372, 0.001906459, 0.001741968, 0.0001160002, -0.0007062841, -9.81694, 0, 0, 31.73889, 1, 1, 760, 800
 125049127, 0, 0.001784923, 0.00176603, 0.001787354, -0.001489824, -0.001232037, -9.818085, 0, 0, 31.74062, 1, 1, 1000, 1000
 125049127, 1, 0.001631227, 0.001971952, 0.00168698, -0.001081542, -0.0003644381, -9.815901, 0, 0, 31.74066, 1, 1, 760, 800
 125089111, 0, 0.001793717, 0.001792409, 0.001806179, -0.0008009343, -0.001089223, -9.817397, 0, 0, 31.74238, 1, 1, 1000, 1000
 125089111, 1, 0.001689407, 0.00193182, 0.001733656, -0.00236652, -0.001051909, -9.81639, 0, 0, 31.74243, 1, 1, 760, 800
 125129095, 0, 0.001827158, 0.001788136, 0.001759201, -0.0003756387, -0.0009425519, -9.82121, 0, 0, 31.74415, 1, 1, 1000, 1000
 125129095, 1, 0.001925348, 0.001712459, 0.001944998, -0.001216559, 0.0005290636, -9.818629, 0, 0, 31.74419, 1, 1, 760, 800
 125169079, 0, 0.001800336, 0.001757904, 0.001873056, -0.0002162703, -0.0008216266, -10.49253, 0, 0, 31.74592, 1, 1, 1000, 1000
 125169079, 1, 0.001766773, 0.00200872, 0.001918015, -0.000418792, 0.0001314076, -10.49277, 0, 0, 31.74596, 1, 1, 760, 800
 125209063, 0, 0.001797376, 0.001832161, 0.001759848, -0.001042882, -0.0005358484, -10.97806, 0, 0, 31.74768, 1, 1, 1000, 1000
 125209063, 1, 0.001820799, 0.001851887, 0.001786837, -0.001059717, -0.00043664, -10.97544, 0, 0, 31.74773, 1, 1, 760, 800
 125249047, 0, 0.001845543, 0.001792673, 0.001813705, -0.001310479, -0.001014598, -11.148, 0, 0, 31.74945, 1, 1, 1000, 1000
 125249047, 1, 0.001725642, 0.001912329, 0.001778871, -0.0009387557, -0.002491822, -11.1432, 0, 0, 31.7495, 1, 1, 760, 800
 125289031, 0, 0.001809009, 0.001861496, 0.001756951, -0.0009950801, -0.00131798, -11.20327, 0, 0, 31.75122, 1, 1, 1000, 1000
 125289031, 1, 0.001844589, 0.001968509, 0.001843282, -0.0009499552, -0.001507685, -11.19654, 0, 0, 31.75126, 1, 1, 760, 800
 125329015, 0, 0.001775384, 0.001819177, 0.001788426, -0.0004925274, -0.001440762, -11.21873, 0, 0, 31.75299, 1, 1, 1000, 1000
 125329015, 1, 0.001826675, 0.001710676, 0.001902702, -0.002388796, -1.567787E-06, -11.21463, 0, 0, 31.75303, 1, 1, 760, 800
 125368999, 0, 0.001850923, 0.001819791, 0.001763245, -0.001869541, -0.001605423, -11.21409, 0, 0, 31.75475, 1, 1, 1000, 1000
 125368999, 1, 0.00189033, 0.001772464, 0.001814363, 1.324795E-05, -0.001956968, -11.20543, 0, 0, 31.75475, 1, 1, 760, 800
 125408983, 0, 0.001813255, 0.001771986, 0.00183013, -0.0006616907, -0.001392053, -11.19425, 0, 0, 31.75652, 1, 1, 1000, 1000
 125408983, 1, 0.001642613, 0.001838588, 0.001774453, -0.001978016, 0.0008702572, -11.18951, 0, 0, 31.75652, 1, 1, 760, 800
 125448967, 0, 0.001768826, 0.001766023, 0.001786096, -0.001295846, -0.002159144, -11.17354, 0, 0, 31.75828, 1, 1, 1000, 1000
 125448967, 1, 0.001705022, 0.002056676, 0.00200658, -0.001212402, -0.0002309857, -11.16858, 0, 0, 31.75828, 1, 1, 760, 800
 125488951, 0, 0.00178561, 0.001814442, 0.00181483, -0.0008280366, -0.001450407, -11.14647, 0, 0, 31.76005, 1, 1, 1000, 1000
 125488951, 1, 0.001618132, 0.001719174, 0.001781908, -0.002779578, 0.001359281, -11.14202, 0, 0, 31.76005, 1, 1, 760, 800
 125528935, 0, 0.001844719, 0.001802716, 0.001779218, -0.0008590958, -0.001252277, -11.1277, 0, 0, 31.76181, 1, 1, 1000, 1000
 125528935, 1, 0.001843224, 0.001896403, 0.001925669, -0.002129508, -0.002886097, -11.12172, 0, 0, 31.76181, 1, 1, 760, 800
 125568919, 0, 0.00128412, 0.00123908, 0.001818808, -0.001373053, -0.0008756067, -11.13204, 0, 0, 31.76358, 1, 1, 1000, 1000
 125568919, 1, 0.001196258, 0.001358232, 0.001692894, -0.0007224525, -0.001566154, -11.13584, 0, 0, 31.76358, 1, 1, 760, 800
 125608903, 0, -0.03262191, -0.03137467, 0.00183969, 7.683752E-05, -0.002630673, -14.58794, 0, 0, 31.76534, 1, 1, 1000, 1000
 125608903, 1, -0.03263072, -0.03148004, 0.00196756, 0.001031207, -0.000186425, -14.63483, 0, 0, 31.76534, 1, 1, 760, 800
 125648887, 0, -0.0387474, -0.0373722, 0.001698751, -0.005419423, 0.002149312, -16.14587, 0, 0, 31.76711, 1, 1, 1000, 1000
 125648887, 1, -0.03872764, -0.03732211, 0.001663044, -0.002900695, 0.002440294, -16.17012, 0, 0, 31.76711, 1, 1, 760, 800
 125688871, 0, -0.03328727, -0.03177416, 0.001595692, -0.01276959, 0.01035965, -15.82977, 0, 0, 31.76887, 1, 1, 1000, 1000
 125688871, 1, -0.03333182, -0.03191325, 0.001626019, -0.0117649, 0.00957204, -15.81546, 0, 0, 31.76887, 1, 1, 760, 800
 125728855, 0, -0.02365758, -0.02279902, 0.001519786, -0.01956956, 0.01734605, -14.90362, 0, 0, 31.77064, 1, 1, 1000, 1000
 125728855, 1, -0.02374402, -0.02303826, 0.001450774, -0.01876643, 0.01740847, -14.89806, 0, 0, 31.77064, 1, 1, 760, 800
 125768839, 0, -0.01471012, -0.01339294, 0.001393999, -0.02288028, 0.02134829, -13.78114, 0, 0, 31.7724, 1, 1, 1000, 1000
 125768839, 1, -0.01461138, -0.01329139, 0.001587188, -0.02385309, 0.02047375, -13.7831, 0, 0, 31.7724, 1, 1, 760, 800
 125808823, 0, -0.008466501, -0.007311121, 0.001411771, -0.02139645, 0.01984986, -12.67972, 0, 0, 31.77416, 1, 1, 1000, 1000
 125808823, 1, -0.008697385, -0.007267508, 0.001257923, -0.02149133, 0.02215171, -12.68055, 0, 0, 31.77412, 1, 1, 760, 800
 125848807, 0, 0.0007870792, 0.001326069, 0.001328545, -0.01728979, 0.016728, -11.73337, 0, 0, 31.77593, 1, 1, 1000, 1000
 125848807, 1, 0.0009577193, 0.001335391, 0.001499162, -0.0178009, 0.01757555, -11.7395, 0, 0, 31.77588, 1, 1, 760, 800
 125888791, 0, 0.005899474, 0.006154588, 0.001362427, -0.01261676, 0.0108832, -11.01471, 0, 0, 31.77769, 1, 1, 1000, 1000
 125888791, 1, 0.005691276, 0.006193839, 0.001265041, -0.01083087, 0.01253705, -11.02835, 0, 0, 31.77765, 1, 1, 760, 800
 125928775, 0, 0.009941673, 0.009645648, 0.001146034, -0.00697912, 0.004724924, -10.54506, 0, 0, 31.77945, 1, 1, 1000, 1000
 125928775, 1, 0.009925338, 0.009676069, 0.001248834, -0.006602418, 0.004097534, -10.55493, 0, 0, 31.77941, 1, 1, 760, 800
 125968759, 0, 0.01162554, 0.01275855, 0.001133497, -0.004133964, 0.00259354, -10.29352, 0, 0, 31.78122, 1, 1, 1000, 1000
 125968759, 1, 0.01152295, 0.0127183, 0.001263349, -0.00549888, 0.001324838, -10.30286, 0, 0, 31.78117, 1, 1, 760, 800
 126008743, 0, 0.01327185, 0.01324855, 0.001116863, -0.002150149, 0.0009165699, -10.21444, 0, 0, 31.78298, 1, 1, 1000, 1000
 126008743, 1, 0.01310607, 0.01321012, 0.001038441, -0.003572898, 0.0001341523, -10.2213, 0, 0, 31.78293, 1, 1, 760, 800
 126049560, 0, 0.01498944, 0.01403295, 0.001097519, -0.002201839, -0.001094179, -10.25376, 0, 0, 31.78478, 1, 1, 1000, 1000
 126049560, 1, 0.01483089, 0.01402099, 0.001133912, -0.002783087, -0.002007363, -10.25594, 0, 0, 31.78478, 1, 1, 760, 800
 126089544, 0, 0.0168039, 0.01548868, 0.001071323, -0.002729971, 0.0003780907, -10.37022, 0, 0, 31.78654, 1, 1, 1000, 1000
 126089544, 1, 0.01681283, 0.0154491, 0.001057022, -0.002979558, 0.003091094, -10.36746, 0, 0, 31.78654, 1, 1, 760, 800
 126129528, 0, 0.01637975, 0.01528744, 0.001075411, -0.00322332, 0.0007618861, -10.51944, 0, 0, 31.78831, 1, 1, 1000, 1000
 126129528, 1, 0.01629645, 0.01535652, 0.001017493, -0.005935227, -0.0001964576, -10.51862, 0, 0, 31.78831, 1, 1, 760, 800
 126169512, 0, 0.01594639, 0.01403722, 0.001059573, -0.005807583, 0.003188418, -10.64913, 0, 0, 31.79007, 1, 1, 1000, 1000
 126169512, 1, 0.01587989, 0.01405538, 0.0008430922, -0.004921598, 0.002547632, -10.64847, 0, 0, 31.79007, 1, 1, 760, 800
 126209496, 0, 0.01570539, 0.01443498, 0.001115347, -0.005930817, 0.003824151, -10.77014, 0, 0, 31.79183, 1, 1, 1000, 1000
 126209496, 1, 0.01559852, 0.0144488, 0.001059537, -0.007350503, 0.004970879, -10.77116, 0, 0, 31.79183, 1, 1, 760, 800
 126249480, 0, 0.01230887, 0.01237462, 0.0009504948, -0.005417569, 0.005651037, -10.84558, 0, 0, 31.79359, 1, 1, 1000, 1000
 126249480, 1, 0.01239428, 0.01239613, 0.00102805, -0.007913806, 0.004331461, -10.84326, 0, 0, 31.79359, 1, 1, 760, 800
 126289464, 0, 0.01144869, 0.01115398, 0.0009095861, -0.00648663, 0.005538019, -10.88489, 0, 0, 31.79535, 1, 1, 1000, 1000
 126289464, 1, 0.01161603, 0.01127633, 0.0006825817, -0.009373816, 0.004385062, -10.88705, 0, 0, 31.79535, 1, 1, 760, 800
 126329448, 0, 0.01034454, 0.009981052, 0.0008631141, -0.007866572, 0.006041981, -10.88874, 0, 0, 31.79711, 1, 1, 1000, 1000
 126329448, 1, 0.01046469, 0.01021569, 0.0008144255, -0.005334268, 0.008876177, -10.889, 0, 0, 31.79711, 1, 1, 760, 800
 126369432, 0, 0.00836152, 0.007956896, 0.0008812567, -0.008059758, 0.007580244, -10.86242, 0, 0, 31.79887, 1, 1, 1000, 1000
 126369432, 1, 0.008316498, 0.008052519, 0.0008555916, -0.01047949, 0.005509689, -10.86375, 0, 0, 31.79887, 1, 1, 760, 800
 126409416, 0, 0.006722863, 0.006757985, 0.0008394677, -0.009163886, 0.007739143, -10.81988, 0, 0, 31.80063, 1, 1, 1000, 1000
 126409416, 1, 0.006732066, 0.006742188, 0.0008846609, -0.007035733, 0.006846207, -10.82111, 0, 0, 31.80063, 1, 1, 760, 800
 126449400, 0, 0.006295164, 0.007393537, 0.0008999837, -0.006993553, 0.007104538, -10.76593, 0, 0, 31.80239, 1, 1, 1000, 1000
 126449400, 1, 0.00642566, 0.007296776, 0.000924029, -0.009253131, 0.004495954, -10.76723, 0, 0, 31.80239, 1, 1, 760, 800
 126489384, 0, 0.0112377, 0.01036003, 0.0008707442, -0.008655703, 0.006943903, -10.71092, 0, 0, 31.80415, 1, 1, 1000, 1000
 126489384, 1, 0.01097666, 0.01047004, 0.0006923912, -0.00822865, 0.008108957, -10.71177, 0, 0, 31.80415, 1, 1, 760, 800
 126529368, 0, 0.007789341, 0.006659012, 0.0008769761, -0.009106671, 0.007511212, -10.66333, 0, 0, 31.80591, 1, 1, 1000, 1000
 126529368, 1, 0.007715741, 0.006815082, 0.0007827705, -0.009491538, 0.005038356, -10.66359, 0, 0, 31.80591, 1, 1, 760, 800
 126569352, 0, 0.006165343, 0.006826289, 0.0008572161, -0.008177081, 0.006645822, -10.61535, 0, 0, 31.80767, 1, 1, 1000, 1000
 126569352, 1, 0.006210012, 0.006724732, 0.0008233919, -0.006317294, 0.007492592, -10.61773, 0, 0, 31.80767, 1, 1, 760, 800
 126609336, 0, 0.005397273, 0.005602719, 0.0008421403, -0.009016824, 0.006935859, -10.57215, 0, 0, 31.80943, 1, 1, 1000, 1000
 126609336, 1, 0.005399629, 0.005707898, 0.0009942577, -0.009623148, 0.009868155, -10.57426, 0, 0, 31.80943, 1, 1, 760, 800
 126649320, 0, 0.008394637, 0.004522855, 0.0009953766, -0.009846213, 0.007365716, -10.5706, 0, 0, 31.81119, 1, 1, 1000, 1000
 126649320, 1, 0.008323101, 0.004574671, 0.001031903, -0.007234326, 0.005604582, -10.57261, 0, 0, 31.81119, 1, 1, 760, 800
 126689304, 0, 0.008161779, 0.004406944, 0.0009990297, -0.009460207, 0.007663616, -10.53966, 0, 0, 31.81295, 1, 1, 1000, 1000
 126689304, 1, 0.008131497, 0.004374614, 0.001044367, -0.009146417, 0.008463005, -10.54159, 0, 0, 31.81295, 1, 1, 760, 800
 126729288, 0, 0.007977908, 0.0043529, 0.0009545264, -0.008319028, 0.006996092, -10.51336, 0, 0, 31.8147, 1, 1, 1000, 1000
 126729288, 1, 0.00789905, 0.004341338, 0.0009913902, -0.007268701, 0.007646658, -10.51226, 0, 0, 31.8147, 1, 1, 760, 800
 126769272, 0, 0.003233162, 0.005497104, 0.001132497, -0.008793521, 0.008524112, -10.52054, 0, 0, 31.81646, 1, 1, 1000, 1000
 126769272, 1, 0.003193577, 0.005392531, 0.001086806, -0.008933802, 0.004163455, -10.52164, 0, 0, 31.81646, 1, 1, 760, 800
 126809256, 0, 0.001924942, 0.004986172, 0.001247129, -0.009126706, 0.00631976, -10.47674, 0, 0, 31.81822, 1, 1, 1000, 1000
 126809256, 1, 0.001966185, 0.005189542, 0.001305126, -0.008357908, 0.008428266, -10.47591, 0, 0, 31.81822, 1, 1, 760, 800
 126849240, 0, 0.003847706, 0.006054681, 0.001337019, -0.009192728, 0.006421508, -10.38774, 0, 0, 31.81998, 1, 1, 1000, 1000
 126849240, 1, 0.003735355, 0.006110458, 0.001263213, -0.009719406, 0.006487041, -10.38825, 0, 0, 31.81998, 1, 1, 760, 800
 126889224, 0, 0.005663943, 0.006064777, 0.001402739, -0.009162832, 0.005029961, -10.28476, 0, 0, 31.82174, 1, 1, 1000, 1000
 126889224, 1, 0.005722684, 0.006094205, 0.001560597, -0.009540969, 0.007119294, -10.28361, 0, 0, 31.82174, 1, 1, 760, 800
 126929208, 0, 0.00455037, 0.005553437, 0.001459763, -0.007335898, 0.006098881, -10.1888, 0, 0, 31.82349, 1, 1, 1000, 1000
 126929208, 1, 0.00457279, 0.005569817, 0.001293474, -0.007390855, 0.004769792, -10.18786, 0, 0, 31.82349, 1, 1, 760, 800
 126969192, 0, 0.002951728, 0.004413701, 0.001476925, -0.007813324, 0.006334028, -10.10135, 0, 0, 31.82525, 1, 1, 1000, 1000
 126969192, 1, 0.003018406, 0.004473579, 0.001430358, -0.009212553, 0.00654771, -10.10284, 0, 0, 31.82525, 1, 1, 760, 800
 127009176, 0, 0.003507294, 0.00351813, 0.001553484, -0.008137787, 0.004697795, -10.02141, 0, 0, 31.82701, 1, 1, 1000, 1000
 127009176, 1, 0.003505671, 0.003475784, 0.001520289, -0.005935825, 0.006669382, -10.02275, 0, 0, 31.82701, 1, 1, 760, 800
 127049160, 0, 0.003429135, 0.005472051, 0.001576087, -0.006975983, 0.005735185, -9.951529, 0, 0, 31.82876, 1, 1, 1000, 1000
 127049160, 1, 0.003332764, 0.005660152, 0.001505968, -0.006899271, 0.005496588, -9.953657, 0, 0, 31.82876, 1, 1, 760, 800
 127089144, 0, 0.004274704, 0.005641954, 0.001565145, -0.006900147, 0.00590016, -9.883919, 0, 0, 31.83052, 1, 1, 1000, 1000
 127089144, 1, 0.004149802, 0.005721882, 0.001411986, -0.008311771, 0.005983527, -9.884816, 0, 0, 31.83052, 1, 1, 760, 800
 127129128, 0, 0.003464859, 0.005101765, 0.001593836, -0.008251471, 0.00483196, -9.823917, 0, 0, 31.83223, 1, 1, 1000, 1000
 127129128, 1, 0.003381984, 0.005020786, 0.001729197, -0.004890074, 0.00697404, -9.82397, 0, 0, 31.83227, 1, 1, 760, 800
 127169112, 0, 0.003129367, 0.0033488, 0.001672801, -0.007867618, 0.005109884, -9.780396, 0, 0, 31.83398, 1, 1, 1000, 1000
 127169112, 1, 0.003135979, 0.00345134, 0.001633748, -0.005065763, 0.004954119, -9.780354, 0, 0, 31.83403, 1, 1, 760, 800
 127209096, 0, 0.001685081, 0.002901151, 0.00171686, -0.006398297, 0.005152083, -9.734776, 0, 0, 31.83574, 1, 1, 1000, 1000
 127209096, 1, 0.001809061, 0.002926668, 0.001837773, -0.007372032, 0.006099291, -9.733493, 0, 0, 31.83578, 1, 1, 760, 800
 127249080, 0, 0.004685045, 0.00485919, 0.001638454, -0.007367346, 0.003885596, -9.689809, 0, 0, 31.8375, 1, 1, 1000, 1000
 127249080, 1, 0.004834005, 0.004973879, 0.001569164, -0.00512034, 0.002871769, -9.688385, 0, 0, 31.83754, 1, 1, 760, 800
 127289064, 0, 0.001984748, 0.001553126, 0.00168414, -0.005945215, 0.004594204, -9.665918, 0, 0, 31.83925, 1, 1, 1000, 1000
 127289064, 1, 0.001816944, 0.001631541, 0.001765317, -0.007239106, 0.004448704, -9.668239, 0, 0, 31.83929, 1, 1, 760, 800
 127329048, 0, 0.0006563065, 0.0008819001, 0.001660595, -0.006122096, 0.004574596, -9.627806, 0, 0, 31.84101, 1, 1, 1000, 1000
 127329048, 1, 0.0005563895, 0.0008778007, 0.001711323, -0.005879746, 0.00559442, -9.631229, 0, 0, 31.84105, 1, 1, 760, 800
 127369032, 0, 0.003068637, 0.00182564, 0.001591534, -0.005959632, 0.003457899, -9.614149, 0, 0, 31.84276, 1, 1, 1000, 1000
 127369032, 1, 0.003216855, 0.001900075, 0.001606039, -0.005055576, 0.004828717, -9.609281, 0, 0, 31.8428, 1, 1, 760, 800
 127409016, 0, -0.0001420766, 0.0002055266, 0.001639001, -0.005343879, 0.003246399, -9.596062, 0, 0, 31.84451, 1, 1, 1000, 1000
 127409016, 1, -6.648598E-05, 0.0002493305, 0.001645534, -0.004668253, 0.003164841, -9.595692, 0, 0, 31.84456, 1, 1, 760, 800
 127449000, 0, 0.003197959, 0.003839635, 0.001625818, -0.005148573, 0.003078646, -9.579342, 0, 0, 31.84627, 1, 1, 1000, 1000
 127449000, 1, 0.003092231, 0.003885288, 0.001564882, -0.004606992, 0.005811129, -9.579794, 0, 0, 31.84631, 1, 1, 760, 800
 127488984, 0, 0.001032401, 0.001104063, 0.001622119, -0.005919314, 0.003352401, -9.57089, 0, 0, 31.84802, 1, 1, 1000, 1000
 127488984, 1, 0.0008789581, 0.001174881, 0.001684266, -0.003551377, 0.005090281, -9.572595, 0, 0, 31.84802, 1, 1, 760, 800
 127528968, 0, 0.003894606, 0.002831626, 0.001535436, -0.005091952, 0.002311822, -9.564531, 0, 0, 31.84977, 1, 1, 1000, 1000
 127528968, 1, 0.003660846, 0.002951173, 0.001585025, -0.005611423, 0.002767042, -9.563601, 0, 0, 31.84977, 1, 1, 760, 800
 127568952, 0, 0.003373333, 0.003039849, 0.001488457, -0.004509869, 0.004139913, -9.557612, 0, 0, 31.85153, 1, 1, 1000, 1000
 127568952, 1, 0.003460221, 0.003071327, 0.001600792, -0.004670242, 0.001490993, -9.556635, 0, 0, 31.85153, 1, 1, 760, 800
 127608936, 0, 0.0008965662, 0.001126064, 0.001530176, -0.003997046, 0.001213847, -9.553285, 0, 0, 31.85328, 1, 1, 1000, 1000
 127608936, 1, 0.001044327, 0.00105734, 0.001477016, -0.003228346, 0.003159655, -9.554622, 0, 0, 31.85328, 1, 1, 760, 800
 127648920, 0, 0.001035365, 0.00116325, 0.00159148, -0.003704945, 0.002181309, -9.558084, 0, 0, 31.85503, 1, 1, 1000, 1000
 127648920, 1, 0.001034635, 0.0014371, 0.001555213, -0.004422784, 0.001419646, -9.55818, 0, 0, 31.85503, 1, 1, 760, 800
 127688904, 0, 0.001030349, 0.001213461, 0.001450496, -0.004638664, 0.001775679, -9.563201, 0, 0, 31.85678, 1, 1, 1000, 1000
 127688904, 1, 0.001073302, 0.001274359, 0.001548925, -0.004525159, 0.002383167, -9.564078, 0, 0, 31.85678, 1, 1, 760, 800
 127728888, 0, 0.001097221, 0.001240479, 0.001572976, -0.003952836, 0.002602838, -9.56793, 0, 0, 31.85854, 1, 1, 1000, 1000
 127728888, 1, 0.001027366, 0.001169836, 0.001534066, -0.003286445, 0.001719294, -9.569208, 0, 0, 31.85854, 1, 1, 760, 800
 127768872, 0, 0.001154319, 0.001216105, 0.001548287, -0.003746099, 0.0004751791, -9.573439, 0, 0, 31.86029, 1, 1, 1000, 1000
 127768872, 1, 0.001074492, 0.001367832, 0.001499073, -0.002998034, 0.003652613, -9.571907, 0, 0, 31.86029, 1, 1, 760, 800
 127808856, 0, 0.00112714, 0.001235712, 0.001546771, -0.002804177, 0.001618526, -9.577868, 0, 0, 31.86204, 1, 1, 1000, 1000
 127808856, 1, 0.00110076, 0.001181078, 0.001481809, -0.002732539, 0.001744018, -9.577712, 0, 0, 31.86204, 1, 1, 760, 800
 127848840, 0, 0.001179491, 0.001285836, 0.001531687, -0.003031206, 0.0008461465, -9.582137, 0, 0, 31.86379, 1, 1, 1000, 1000
 127848840, 1, 0.001123492, 0.001204778, 0.001531688, -0.002694034, 0.001016854, -9.584991, 0, 0, 31.86379, 1, 1, 760, 800
 127888824, 0, 0.001255416, 0.001298802, 0.001529872, -0.0015784, 0.0007930138, -9.587626, 0, 0, 31.86554, 1, 1, 1000, 1000
 127888824, 1, 0.001120697, 0.00120201, 0.001499227, -0.003184273, 0.001335581, -9.586973, 0, 0, 31.8655, 1, 1, 760, 800
 127928808, 0, 0.001256322, 0.001301196, 0.001537563, -0.002531836, 0.0006850199, -9.59198, 0, 0, 31.86729, 1, 1, 1000, 1000
 127928808, 1, 0.001300403, 0.00126445, 0.001419474, -0.001401578, 0.0002628884, -9.591467, 0, 0, 31.86725, 1, 1, 760, 800
 127968792, 0, 0.0008255323, 0.0003605051, 0.001481726, -0.002777268, 0.0009028952, -9.622135, 0, 0, 31.86905, 1, 1, 1000, 1000
 127968792, 1, 0.0008178406, 0.0002242123, 0.001506561, -0.002838419, -0.00050226, -9.621115, 0, 0, 31.869, 1, 1, 760, 800
 128008776, 0, -0.001837739, -0.0006253531, 0.001293316, -0.0006206402, 0.0005095435, -9.628566, 0, 0, 31.8708, 1, 1, 1000, 1000
 128008776, 1, -0.001870205, -0.0005776527, 0.001430477, -0.002872239, 0.00133018, -9.629372, 0, 0, 31.87075, 1, 1, 760, 800
 128048760, 0, 0.000404227, -0.0005012194, 0.001287881, -0.002207797, 0.001201369, -9.636427, 0, 0, 31.87255, 1, 1, 1000, 1000
 128048760, 1, 0.0003766146, -0.000463225, 0.001318305, -0.003462372, -7.103878E-06, -9.635849, 0, 0, 31.87251, 1, 1, 760, 800
 128088744, 0, 0.0004394496, -0.0004829775, 0.001285058, -0.002265239, -0.0008328606, -9.640306, 0, 0, 31.8743, 1, 1, 1000, 1000
 128088744, 1, 0.0003210145, -0.0003659468, 0.001274768, -0.001381265, -0.001629023, -9.640792, 0, 0, 31.87426, 1, 1, 760, 800
 128129561, 0, 0.0002289392, 0.001436165, 0.001186944, -0.001255658, -0.001364808, -9.651999, 0, 0, 31.87609, 1, 1, 1000, 1000
 128129561, 1, 9.652809E-05, 0.001632512, 0.001240612, 0.0007057319, -0.001660007, -9.652592, 0, 0, 31.87609, 1, 1, 760, 800
 128169545, 0, 0.00154062, 0.002813507, 0.001284941, -0.0008708189, -0.0008022756, -9.674426, 0, 0, 31.87784, 1, 1, 1000, 1000
 128169545, 1, 0.001642332, 0.002894075, 0.001298147, -0.002079253, -0.000408256, -9.675276, 0, 0, 31.87784, 1, 1, 760, 800
 128209529, 0, 0.001539266, -0.0004923518, 0.001359152, -0.000627027, -0.001157268, -9.68304, 0, 0, 31.87959, 1, 1, 1000, 1000
 128209529, 1, 0.001597359, -0.0005473553, 0.001483892, -0.002665064, -0.0004701839, -9.681545, 0, 0, 31.87959, 1, 1, 760, 800
 128249513, 0, 0.001474772, -0.000333675, 0.00140008, -0.00133013, -0.001903708, -9.685999, 0, 0, 31.88134, 1, 1, 1000, 1000
 128249513, 1, 0.001427017, -0.0001349405, 0.001448556, -0.0005251721, -0.001740192, -9.685535, 0, 0, 31.88134, 1, 1, 760, 800
 128289497, 0, 0.001533021, 0.0008718417, 0.001359357, -0.001215967, -0.001148655, -9.691689, 0, 0, 31.88309, 1, 1, 1000, 1000
 128289497, 1, 0.001472018, 0.0008744809, 0.001321009, -0.002469457, -0.001768769, -9.69115, 0, 0, 31.88309, 1, 1, 760, 800
 128329481, 0, 0.003175063, 0.002606765, 0.001266534, 0.0002367996, -0.001070633, -9.70833, 0, 0, 31.88484, 1, 1, 1000, 1000
 128329481, 1, 0.003302671, 0.002575106, 0.00122736, -0.0009678637, -0.00316864, -9.705642, 0, 0, 31.88484, 1, 1, 760, 800
 128369465, 0, 0.0008297663, 0.001712957, 0.001121829, -0.0003525544, -0.000713756, -9.723166, 0, 0, 31.88659, 1, 1, 1000, 1000
 128369465, 1, 0.0007582039, 0.001700268, 0.001322816, -8.512588E-05, -0.001966991, -9.721116, 0, 0, 31.88659, 1, 1, 760, 800
 128409449, 0, 0.001603051, 0.001724211, 0.001087169, 0.0004244275, -0.000743211, -9.727705, 0, 0, 31.88834, 1, 1, 1000, 1000
 128409449, 1, 0.001670053, 0.001650723, 0.001124838, 0.0008306412, -0.001561153, -9.727274, 0, 0, 31.88834, 1, 1, 760, 800
 128449433, 0, 0.001569996, 0.001668606, 0.001131553, 0.0004115236, -0.002833508, -9.728348, 0, 0, 31.89008, 1, 1, 1000, 1000
 128449433, 1, 0.001469043, 0.001848238, 0.0009887604, 0.0005632406, -0.001602199, -9.727188, 0, 0, 31.89008, 1, 1, 760, 800
 128489417, 0, 0.001654139, 0.001704038, 0.001148148, 0.0002619133, -0.00163739, -9.730469, 0, 0, 31.89183, 1, 1, 1000, 1000
 128489417, 1, 0.001624687, 0.001792429, 0.001025351, -0.002251095, -0.002494533, -9.730875, 0, 0, 31.89183, 1, 1, 760, 800
 128529401, 0, -0.001073668, 0.0005183967, 0.001173022, -6.203501E-05, -0.001942705, -9.761095, 0, 0, 31.89358, 1, 1, 1000, 1000
 128529401, 1, -0.001232433, 0.0004764553, 0.001174175, 0.0001515169, -0.001001651, -9.761601, 0, 0, 31.89358, 1, 1, 760, 800
 128569385, 0, -0.001248943, -0.0007237011, 0.001353083, -6.649454E-05, -0.002440922, -9.76143, 0, 0, 31.89533, 1, 1, 1000, 1000
 128569385, 1, -0.001258242, -0.0008846974, 0.001324174, 0.001492576, -0.005258357, -9.764874, 0, 0, 31.89533, 1, 1, 760, 800
 128609369, 0, -0.001157949, 0.0005084545, 0.00152487, 0.0004609443, -0.002256782, -9.765944, 0, 0, 31.89707, 1, 1, 1000, 1000
 128609369, 1, -0.00106067, 0.0005308636, 0.001602058, 0.0007055997, -0.001612795, -9.765206, 0, 0, 31.89707, 1, 1, 760, 800
 128649353, 0, -0.001106917, -0.0002715492, 0.001596373, 0.000515057, -0.002674177, -9.768297, 0, 0, 31.89882, 1, 1, 1000, 1000
 128649353, 1, -0.001315292, -0.0001514747, 0.001437154, 0.001583568, -0.004677583, -9.767916, 0, 0, 31.89882, 1, 1, 760, 800
 128689337, 0, -0.0009619829, -0.0001172926, 0.001526412, 0.001586705, -0.002873166, -9.768769, 0, 0, 31.90057, 1, 1, 1000, 1000
 128689337, 1, -0.0009737709, -0.0002007897, 0.001469153, 0.00384061, -0.002420787, -9.767084, 0, 0, 31.90057, 1, 1, 760, 800
 128729321, 0, 0.001338752, 0.002904389, 0.001614294, 0.001187385, -0.002553024, -9.781113, 0, 0, 31.90231, 1, 1, 1000, 1000
 128729321, 1, 0.001515204, 0.003017353, 0.001515838, -0.000133286, -0.004729482, -9.78031, 0, 0, 31.90231, 1, 1, 760, 800
 128769305, 0, 0.002576337, 0.001305436, 0.001556436, 0.0001677042, -0.003036012, -9.787023, 0, 0, 31.90406, 1, 1, 1000, 1000
 128769305, 1, 0.002600083, 0.001397157, 0.001511938, 0.002588172, -0.003758848, -9.787882, 0, 0, 31.90406, 1, 1, 760, 800
 128809289, 0, 0.002067643, 0.0003564478, 0.001624103, 0.001520016, -0.003766822, -9.79052, 0, 0, 31.90581, 1, 1, 1000, 1000
 128809289, 1, 0.002172359, 0.0004989637, 0.001661974, 5.833633E-05, 1.454248E-05, -9.788914, 0, 0, 31.90581, 1, 1, 760, 800
 128849273, 0, 0.003933073, 0.003712972, 0.001663177, 0.0023028, -0.003115511, -9.802107, 0, 0, 31.90755, 1, 1, 1000, 1000
 128849273, 1, 0.003835736, 0.003559105, 0.001568015, 0.002536443, -0.001484821, -9.799873, 0, 0, 31.90755, 1, 1, 760, 800
 128889257, 0, 0.003947854, 0.003917111, 0.00170178, 0.001193179, -0.002367326, -9.805242, 0, 0, 31.9093, 1, 1, 1000, 1000
 128889257, 1, 0.003869862, 0.00406842, 0.001738362, 0.001670104, -0.003381557, -9.804301, 0, 0, 31.9093, 1, 1, 760, 800
 128929241, 0, 0.004003418, 0.003874271, 0.001755756, 0.001874014, -0.002686696, -9.804377, 0, 0, 31.91104, 1, 1, 1000, 1000
 128929241, 1, 0.004019105, 0.003926204, 0.001729661, 0.001259969, -0.003352519, -9.803637, 0, 0, 31.91104, 1, 1, 760, 800
 128969225, 0, 0.003899957, 0.003828794, 0.001682019, 0.001305968, -0.002446826, -9.806785, 0, 0, 31.91279, 1, 1, 1000, 1000
 128969225, 1, 0.003741669, 0.003942573, 0.001709526, 0.003577369, -0.002280608, -9.803071, 0, 0, 31.91279, 1, 1, 760, 800
 129009209, 0, 0.003892056, 0.003806419, 0.00163055, 0.001759452, -0.002125693, -9.804905, 0, 0, 31.91453, 1, 1, 1000, 1000
 129009209, 1, 0.003857693, 0.003922546, 0.001634058, 0.002165956, -0.004209909, -9.807178, 0, 0, 31.91453, 1, 1, 760, 800
 129049193, 0, 0.003768599, 0.003727753, 0.001673401, 0.002749, -0.00238974, -9.80468, 0, 0, 31.91628, 1, 1, 1000, 1000
 129049193, 1, 0.003877033, 0.003784809, 0.001912596, 0.002683282, -0.002905566, -9.804972, 0, 0, 31.91628, 1, 1, 760, 800
 129089177, 0, 0.003713711, 0.003608121, 0.001700073, 0.001940902, -0.003352216, -9.805244, 0, 0, 31.91802, 1, 1, 1000, 1000
 129089177, 1, 0.003840962, 0.003614469, 0.001705545, 0.003689085, -0.00352783, -9.80798, 0, 0, 31.91802, 1, 1, 760, 800
 129129161, 0, -0.001447803, -0.002465277, 0.001654488, 0.002305286, -0.002546313, -9.804999, 0, 0, 31.91977, 1, 1, 1000, 1000
 129129161, 1, -0.001547624, -0.002441658, 0.001880248, 0.002875226, -0.002983883, -9.806055, 0, 0, 31.91977, 1, 1, 760, 800
 129169145, 0, -0.0036324, -0.004610245, 0.00164435, 0.001658031, -0.003624877, -9.818612, 0, 0, 31.92151, 1, 1, 1000, 1000
 129169145, 1, -0.003672729, -0.004754065, 0.001789415, 0.001792544, -0.004149757, -9.818805, 0, 0, 31.92151, 1, 1, 760, 800
 129209129, 0, -0.004932594, -0.005440264, 0.001683997, 0.00244861, -0.002960035, -9.820289, 0, 0, 31.92321, 1, 1, 1000, 1000
 129209129, 1, -0.00496923, -0.005322022, 0.001806349, 0.004322209, -0.005180694, -9.821811, 0, 0, 31.92325, 1, 1, 760, 800
 129249113, 0, -0.002953748, -0.003744304, 0.001793978, 0.00238885, -0.003164022, -9.821098, 0, 0, 31.92495, 1, 1, 1000, 1000
 129249113, 1, -0.003039464, -0.003597828, 0.001743904, 0.004606032, -0.003833401, -9.821977, 0, 0, 31.925, 1, 1, 760, 800
 129289097, 0, -0.002062717, -0.001896585, 0.001721399, 0.003717743, -0.004077611, -9.823766, 0, 0, 31.9267, 1, 1, 1000, 1000
 129289097, 1, -0.002188119, -0.001990891, 0.001703582, 0.003469795, -0.007237394, -9.823236, 0, 0, 31.92674, 1, 1, 760, 800
 129329081, 0, -0.0004950295, -0.0009919823, 0.00169807, 0.001840188, -0.002972046, -9.823315, 0, 0, 31.92844, 1, 1, 1000, 1000
 129329081, 1, -0.000742836, -0.001152172, 0.001725932, 0.004140716, -0.003592119, -9.822987, 0, 0, 31.92848, 1, 1, 760, 800
 129369065, 0, 0.0003551571, -0.0002392268, 0.001753055, 0.002689992, -0.002832368, -9.824198, 0, 0, 31.93018, 1, 1, 1000, 1000
 129369065, 1, 4.772619E-05, -0.0003570814, 0.00155686, 0.004120329, -0.002568268, -9.822927, 0, 0, 31.93023, 1, 1, 760, 800
 129409049, 0, 2.269672E-05, -0.002367245, 0.001666531, 0.00256308, -0.00387777, -9.826283, 0, 0, 31.93192, 1, 1, 1000, 1000
 129409049, 1, -9.080795E-05, -0.002310289, 0.001685159, 0.00582896, -0.00577511, -9.822598, 0, 0, 31.93197, 1, 1, 760, 800
 129449033, 0, 0.003138064, 0.002125452, 0.001605624, 0.002567751, -0.004456922, -9.822748, 0, 0, 31.93367, 1, 1, 1000, 1000
 129449033, 1, 0.002952756, 0.001824008, 0.001635845, 0.001024599, -0.004567655, -9.821865, 0, 0, 31.93371, 1, 1, 760, 800
 129489017, 0, 0.003208588, 0.003724009, 0.001591136, 0.002478701, -0.00435834, -9.821785, 0, 0, 31.93541, 1, 1, 1000, 1000
 129489017, 1, 0.0031574, 0.003788066, 0.001790378, 0.005783551, -0.003668274, -9.823133, 0, 0, 31.93545, 1, 1, 760, 800
 129529001, 0, 0.003397552, 0.002976599, 0.001584321, 0.003038651, -0.004191041, -9.824266, 0, 0, 31.93715, 1, 1, 1000, 1000
 129529001, 1, 0.003323509, 0.002926502, 0.001395768, 0.003943128, -0.00318093, -9.824923, 0, 0, 31.93719, 1, 1, 760, 800
 129568985, 0, 0.002210556, 0.002622875, 0.001588551, 0.001732701, -0.004555555, -9.823433, 0, 0, 31.93889, 1, 1, 1000, 1000
 129568985, 1, 0.002104221, 0.002781052, 0.00147257, 0.002157655, -0.00409953, -9.825417, 0, 0, 31.93889, 1, 1, 760, 800
 129608969, 0, 0.0005757137, 0.001369212, 0.001501349, 0.003409736, -0.004539786, -9.82636, 0, 0, 31.94063, 1, 1, 1000, 1000
 129608969, 1, 0.0004377672, 0.001427343, 0.001418719, 0.003745849, -0.005264905, -9.825704, 0, 0, 31.94063, 1, 1, 760, 800
 129648953, 0, 0.001236395, 0.002585658, 0.00129588, 0.001862109, -0.003608139, -9.820158, 0, 0, 31.94238, 1, 1, 1000, 1000
 129648953, 1, 0.001468975, 0.002809963, 0.001457416, 0.004492785, -0.003615721, -9.822668, 0, 0, 31.94238, 1, 1, 760, 800
 129688937, 0, 0.002280024, 0.002595784, 0.001258634, 0.001648772, -0.005203179, -9.819634, 0, 0, 31.94412, 1, 1, 1000, 1000
 129688937, 1, 0.002324074, 0.002719537, 0.001362002, 0.004731209, -0.004271767, -9.818436, 0, 0, 31.94412, 1, 1, 760, 800
 129728921, 0, 0.001851631, 0.001023962, 0.001305349, 0.002951653, -0.003681117, -9.817486, 0, 0, 31.94586, 1, 1, 1000, 1000
 129728921, 1, 0.002042497, 0.0008675891, 0.001198898, 0.002734988, -0.003003184, -9.818951, 0, 0, 31.94586, 1, 1, 760, 800
 129768905, 0, 0.002402057, -0.000501685, 0.001270223, 0.003495199, -0.004630219, -9.817986, 0, 0, 31.9476, 1, 1, 1000, 1000
 129768905, 1, 0.002235712, -0.0003705814, 0.001185186, 0.002584896, -0.00342814, -9.817032, 0, 0, 31.9476, 1, 1, 760, 800
 129808889, 0, 0.002919953, -0.002102999, 0.001187377, 0.002750301, -0.004056841, -9.815601, 0, 0, 31.94934, 1, 1, 1000, 1000
 129808889, 1, 0.002882378, -0.001863543, 0.001377749, 0.005607011, -0.005586621, -9.813062, 0, 0, 31.94934, 1, 1, 760, 800
 129848873, 0, 0.003304911, 0.001086996, 0.001326713, 0.003250981, -0.004225257, -9.809376, 0, 0, 31.95108, 1, 1, 1000, 1000
 129848873, 1, 0.003332958, 0.0009513008, 0.001455738, 0.003096862, -0.003169478, -9.807558, 0, 0, 31.95108, 1, 1, 760, 800
 129888857, 0, 0.001755284, 0.0006266427, 0.001404675, 0.002273074, -0.00387845, -9.803513, 0, 0, 31.95282, 1, 1, 1000, 1000
 129888857, 1, 0.001826572, 0.0007649388, 0.001308119, 0.003226761, -0.002341452, -9.802793, 0, 0, 31.95282, 1, 1, 760, 800
 129928841, 0, 0.002061888, 0.00134398, 0.001548096, 0.002799251, -0.003029342, -9.807751, 0, 0, 31.95456, 1, 1, 1000, 1000
 129928841, 1, 0.002144594, 0.001364974, 0.001636969, 0.005638915, -0.003160329, -9.808313, 0, 0, 31.95456, 1, 1, 760, 800
 129968825, 0, 0.00300417, -0.00130986, 0.001485415, 0.002508647, -0.00379689, -9.817432, 0, 0, 31.9563, 1, 1, 1000, 1000
 129968825, 1, 0.002973032, -0.001097906, 0.001511958, 0.0009523884, -0.00499756, -9.817774, 0, 0, 31.95625, 1, 1, 760, 800
 130008809, 0, 0.000341353, -0.002857052, 0.001498539, 0.001414305, -0.003996749, -9.810099, 0, 0, 31.95803, 1, 1, 1000, 1000
 130008809, 1, 2.244254E-05, -0.002851475, 0.001547134, 0.002847711, -0.00357372, -9.808342, 0, 0, 31.95799, 1, 1, 760, 800
 130048793, 0, 0.002411066, -9.728624E-06, 0.001541388, 0.003097488, -0.003721748, -9.803631, 0, 0, 31.95977, 1, 1, 1000, 1000
 130048793, 1, 0.002347312, 0.0001245691, 0.001525861, 0.004553654, -0.003277461, -9.801585, 0, 0, 31.95973, 1, 1, 760, 800
 130088777, 0, 0.002356476, -0.0001131, 0.001491497, 0.002790819, -0.003414254, -9.802948, 0, 0, 31.96151, 1, 1, 1000, 1000
 130088777, 1, 0.002330512, 7.287256E-05, 0.001502765, 0.001392765, -0.005797233, -9.802081, 0, 0, 31.96147, 1, 1, 760, 800
 130128761, 0, 0.002323945, -7.617624E-05, 0.001493717, 0.003862539, -0.00331333, -9.80297, 0, 0, 31.96325, 1, 1, 1000, 1000
 130128761, 1, 0.002317075, -7.27314E-05, 0.001523909, 0.002324206, -0.001940827, -9.800385, 0, 0, 31.96321, 1, 1, 760, 800
 130168745, 0, 0.002336798, 0.001329832, 0.001498225, 0.002412461, -0.003679337, -9.805359, 0, 0, 31.96499, 1, 1, 1000, 1000
 130168745, 1, 0.002361773, 0.001463735, 0.001666606, 0.001997868, -0.0037968, -9.805356, 0, 0, 31.96494, 1, 1, 760, 800
 130209562, 0, 0.002269856, 0.001983471, 0.001466147, 0.002809929, -0.00345249, -9.8022, 0, 0, 31.96677, 1, 1, 1000, 1000
 130209562, 1, 0.002420533, 0.002094731, 0.001541736, 0.002454584, -0.005878685, -9.806223, 0, 0, 31.96677, 1, 1, 760, 800
 130249546, 0, 0.002336499, 0.002031172, 0.001548349, 0.003185883, -0.004455391, -9.802632, 0, 0, 31.96851, 1, 1, 1000, 1000
 130249546, 1, 0.00228361, 0.001996954, 0.001372937, 0.002359215, -0.004363106, -9.805308, 0, 0, 31.96851, 1, 1, 760, 800
 130289530, 0, 0.00224557, 0.001962275, 0.001456659, 0.003095484, -0.003046011, -9.803641, 0, 0, 31.97025, 1, 1, 1000, 1000
 130289530, 1, 0.002346093, 0.00197387, 0.001508762, 0.003440348, -0.005205649, -9.802848, 0, 0, 31.97025, 1, 1, 760, 800
 130329514, 0, 0.002257439, 0.001943457, 0.001496332, 0.003723776, -0.003320611, -9.804308, 0, 0, 31.97198, 1, 1, 1000, 1000
 130329514, 1, 0.002282153, 0.001815888, 0.001305614, 0.003502961, -0.006118, -9.802855, 0, 0, 31.97198, 1, 1, 760, 800
 130369498, 0, 0.002259662, 0.0019389, 0.001501158, 0.003017521, -0.003418248, -9.804728, 0, 0, 31.97372, 1, 1, 1000, 1000
 130369498, 1, 0.002369485, 0.002041937, 0.00151237, 0.003579559, -0.003474165, -9.802441, 0, 0, 31.97372, 1, 1, 760, 800
 130409482, 0, 0.002236244, 0.001950667, 0.001463894, 0.003131476, -0.003817223, -9.805249, 0, 0, 31.97546, 1, 1, 1000, 1000
 130409482, 1, 0.002364529, 0.002059884, 0.001418117, 0.003520781, -0.00281713, -9.804618, 0, 0, 31.97546, 1, 1, 760, 800
 130449466, 0, 0.002245852, 0.001980282, 0.001466389, 0.002326709, -0.004005426, -9.804928, 0, 0, 31.97719, 1, 1, 1000, 1000
 130449466, 1, 0.002467981, 0.001962633, 0.001446876, 0.005560995, -0.005948951, -9.801722, 0, 0, 31.97719, 1, 1, 760, 800
 130489450, 0, 0.002239937, 0.001967448, 0.001533686, 0.002272071, -0.003707311, -9.804019, 0, 0, 31.97893, 1, 1, 1000, 1000
 130489450, 1, 0.002132833, 0.001892125, 0.001381462, 0.002539792, -0.005873373, -9.806198, 0, 0, 31.97893, 1, 1, 760, 800
 130529434, 0, 0.00202994, 0.00194183, 0.001448569, 0.002303757, -0.004595861, -9.80365, 0, 0, 31.98067, 1, 1, 1000, 1000
 130529434, 1, 0.001960489, 0.001871349, 0.001582247, 0.00243068, -0.002954823, -9.804533, 0, 0, 31.98067, 1, 1, 760, 800
 130569418, 0, -0.0003034227, 0.001926243, 0.001397633, 0.001658603, -0.003376714, -9.798254, 0, 0, 31.9824, 1, 1, 1000, 1000
 130569418, 1, -0.0002787002, 0.001994319, 0.00124644, 0.004034019, -0.001315894, -9.798471, 0, 0, 31.9824, 1, 1, 760, 800
 130609402, 0, -0.00352568, 0.001106802, 0.001020996, 0.003194178, -0.004354748, -9.795101, 0, 0, 31.98414, 1, 1, 1000, 1000
 130609402, 1, -0.003491901, 0.001121542, 0.001018906, 0.00259923, -0.0043249, -9.796035, 0, 0, 31.98414, 1, 1, 760, 800
 130649386, 0, -0.0004894048, 0.001986147, 0.0006638465, 0.002043017, -0.00388126, -9.797868, 0, 0, 31.98587, 1, 1, 1000, 1000
 130649386, 1, -0.0002517698, 0.002117737, 0.0008306726, 0.0008486343, -0.005122273, -9.794374, 0, 0, 31.98587, 1, 1, 760, 800
 130689370, 0, 0.0002624641, 0.001938105, 0.0003950667, 0.002489631, -0.004114075, -9.799528, 0, 0, 31.98761, 1, 1, 1000, 1000
 130689370, 1, 0.0002765078, 0.002173393, 0.0002486492, 0.002005642, -0.004245439, -9.800804, 0, 0, 31.98761, 1, 1, 760, 800
 130729354, 0, 0.002374623, 0.001968901, 0.0002184338, 0.001848986, -0.004001067, -9.80304, 0, 0, 31.98934, 1, 1, 1000, 1000
 130729354, 1, 0.002307187, 0.002023996, 0.0001553426, 0.001019762, -0.003673558, -9.805631, 0, 0, 31.98934, 1, 1, 760, 800
 130769338, 0, 0.00143549, 0.002014307, 0.0001488294, 0.002595958, -0.004590371, -9.806583, 0, 0, 31.99108, 1, 1, 1000, 1000
 130769338, 1, 0.001435306, 0.001903479, 0.0001457796, 0.001680437, -0.00226582, -9.805493, 0, 0, 31.99108, 1, 1, 760, 800
 130809322, 0, 0.001433389, 0.001936209, 0.0001994628, 0.002592011, -0.004025471, -9.806098, 0, 0, 31.99281, 1, 1, 1000, 1000
 130809322, 1, 0.001479393, 0.001862945, 0.0002379069, 0.0009028254, -0.005005751, -9.806348, 0, 0, 31.99281, 1, 1, 760, 800
 130849306, 0, 0.001536542, 0.001949459, 0.0002018946, 0.002388278, -0.004671905, -9.806492, 0, 0, 31.99454, 1, 1, 1000, 1000
 130849306, 1, 0.001485049, 0.001901137, 0.0002941948, 0.003671249, -0.002999494, -9.804216, 0, 0, 31.99454, 1, 1, 760, 800
 130889290, 0, 0.001474548, 0.001921846, 0.0002326567, 0.002019194, -0.004316045, -9.805939, 0, 0, 31.99628, 1, 1, 1000, 1000
 130889290, 1, 0.001508196, 0.001983472, 0.0002229628, 0.004467187, -0.001581254, -9.804859, 0, 0, 31.99628, 1, 1, 760, 800
 130929274, 0, 0.001490923, 0.001918571, 0.0002394234, 0.001896921, -0.003240776, -9.806848, 0, 0, 31.99801, 1, 1, 1000, 1000
 130929274, 1, 0.001534888, 0.00191646, 0.0001022792, 0.001883117, -0.002049068, -9.807089, 0, 0, 31.99801, 1, 1, 760, 800
 130969258, 0, -0.0003631765, -0.0007895902, 7.829572E-05, 0.001681037, -0.003420714, -9.813604, 0, 0, 31.99974, 1, 1, 1000, 1000
 130969258, 1, -0.0004137786, -0.0007187575, 0.0002752392, 0.0001614445, -0.003052163, -9.814049, 0, 0, 31.99974, 1, 1, 760, 800
 131009242, 0, -0.001539271, -0.001942162, 0.0001728644, 0.001118683, -0.004922404, -9.806743, 0, 0, 32.00148, 1, 1, 1000, 1000
 131009242, 1, -0.001416851, -0.001877389, 0.0002956805, -0.000434947, -0.003010842, -9.805993, 0, 0, 32.00148, 1, 1, 760, 800
 131049226, 0, -0.001532279, -0.001816963, 0.0006135784, 0.002641719, -0.004309171, -9.817204, 0, 0, 32.00321, 1, 1, 1000, 1000
 131049226, 1, -0.001358162, -0.001716229, 0.0005084482, 0.003343245, -0.005339396, -9.81757, 0, 0, 32.00321, 1, 1, 760, 800
 131089210, 0, 0.0002918407, -0.001898148, 0.0009919128, 0.001592614, -0.004610288, -9.82041, 0, 0, 32.00494, 1, 1, 1000, 1000
 131089210, 1, 0.0003165444, -0.001992099, 0.001029996, 0.001390957, -0.004840028, -9.820811, 0, 0, 32.00494, 1, 1, 760, 800
 131129194, 0, 0.001055206, -0.002785093, 0.001114051, 0.002066195, -0.002840738, -9.82486, 0, 0, 32.00668, 1, 1, 1000, 1000
 131129194, 1, 0.001128622, -0.002618748, 0.001024755, 0.001534342, -0.003735228, -9.824488, 0, 0, 32.00668, 1, 1, 760, 800
 131169178, 0, 0.001365158, -0.00154393, 0.001370548, 0.001160633, -0.003626802, -9.824958, 0, 0, 32.00841, 1, 1, 1000, 1000
 131169178, 1, 0.001197564, -0.001585396, 0.001476991, 0.00177508, -0.004336202, -9.819702, 0, 0, 32.00841, 1, 1, 760, 800
 131209162, 0, 0.0005563528, -0.002448274, 0.00147082, 0.00190645, -0.003708084, -9.824539, 0, 0, 32.01014, 1, 1, 1000, 1000
 131209162, 1, 0.0006621552, -0.00230599, 0.001345246, 0.0009888405, -0.003886916, -9.826537, 0, 0, 32.01014, 1, 1, 760, 800
 131249146, 0, 0.001939416, 0.001140867, 0.001504623, 0.001202667, -0.004348597, -9.825774, 0, 0, 32.01187, 1, 1, 1000, 1000
 131249146, 1, 0.001744552, 0.001487055, 0.001527339, 0.002697933, -0.004866648, -9.825321, 0, 0, 32.01187, 1, 1, 760, 800
 131289130, 0, 0.002377537, 0.002109806, 0.001609254, 0.001461757, -0.003632403, -9.827322, 0, 0, 32.01356, 1, 1, 1000, 1000
 131289130, 1, 0.002465614, 0.002103014, 0.001528731, 0.001575068, -0.005569684, -9.828728, 0, 0, 32.01361, 1, 1, 760, 800
 131329114, 0, 5.472854E-05, 0.002552589, 0.001724707, 0.001364512, -0.00384106, -9.82972, 0, 0, 32.01529, 1, 1, 1000, 1000
 131329114, 1, -6.860615E-05, 0.00264688, 0.001875859, 0.001676495, -0.002675757, -9.830745, 0, 0, 32.01534, 1, 1, 760, 800
 131369098, 0, 0.0003818223, 0.002401659, 0.001875418, 0.001413964, -0.004056666, -9.833107, 0, 0, 32.01702, 1, 1, 1000, 1000
 131369098, 1, 0.0002729347, 0.002446411, 0.001928507, 0.003568625, -0.004962834, -9.831484, 0, 0, 32.01707, 1, 1, 760, 800
 131409082, 0, 0.0002791628, 0.001331854, 0.002140115, 0.001028344, -0.004860849, -9.831589, 0, 0, 32.01876, 1, 1, 1000, 1000
 131409082, 1, 4.637375E-05, 0.001401547, 0.002102362, 0.0002551202, -0.003494603, -9.831001, 0, 0, 32.0188, 1, 1, 760, 800
 131449066, 0, 0.0002318164, 0.0009029436, 0.002361965, 0.0021145, -0.003531668, -9.832051, 0, 0, 32.02048, 1, 1, 1000, 1000
 131449066, 1, 0.0002262738, 0.0008609759, 0.002326603, 0.001045667, -0.00423095, -9.829766, 0, 0, 32.02053, 1, 1, 760, 800
 131489050, 0, 0.0002889272, 0.0001610095, 0.002626757, 0.001456384, -0.003258095, -9.828959, 0, 0, 32.02222, 1, 1, 1000, 1000
 131489050, 1, 0.0003398311, 0.0001663348, 0.002711657, 0.0008333625, -0.005298763, -9.827251, 0, 0, 32.02226, 1, 1, 760, 800
 131529034, 0, 0.001572477, 4.480945E-05, 0.002856864, -0.0001241328, -0.00380231, -9.82952, 0, 0, 32.02395, 1, 1, 1000, 1000
 131529034, 1, 0.001563702, 0.0001281114, 0.002910939, 0.004378624, -0.00426816, -9.828601, 0, 0, 32.02399, 1, 1, 760, 800
 131569018, 0, 0.002492736, 0.0008688677, 0.002852244, 0.001192091, -0.004502978, -9.884241, 0, 0, 32.02568, 1, 1, 1000, 1000
 131569018, 1, 0.002371005, 0.0008760312, 0.002779583, 0.0012505, -0.004428739, -9.881946, 0, 0, 32.02572, 1, 1, 760, 800
 131609002, 0, 0.002145276, 0.0008465719, 0.002909551, 0.001076476, -0.003985328, -9.974963, 0, 0, 32.0274, 1, 1, 1000, 1000
 131609002, 1, 0.002156574, 0.0009428809, 0.002845912, 0.002664704, -0.005634719, -9.976095, 0, 0, 32.02745, 1, 1, 760, 800
 131648986, 0, 0.0002666191, 0.001468723, 0.002848111, -4.727196E-05, -0.004103813, -9.99962, 0, 0, 32.02914, 1, 1, 1000, 1000
 131648986, 1, 0.0002489799, 0.001362125, 0.002809688, 0.0009690721, -0.002719447, -10.00103, 0, 0, 32.02914, 1, 1, 760, 800
 131688970, 0, 0.0001756549, 0.002669718, 0.002821245, -0.0002587245, -0.002829534, -9.973405, 0, 0, 32.03087, 1, 1, 1000, 1000
 131688970, 1, 0.000130377, 0.002777863, 0.002753703, 0.0008511559, -0.002787103, -9.973656, 0, 0, 32.03087, 1, 1, 760, 800
 131728954, 0, 0.001436251, 0.006944551, 0.002681957, -0.0003335181, -0.002660919, -9.959421, 0, 0, 32.03259, 1, 1, 1000, 1000
 131728954, 1, 0.001620046, 0.006788325, 0.00263847, 0.0001531241, -0.003582368, -9.959962, 0, 0, 32.03259, 1, 1, 760, 800
 131768938, 0, 0.003566318, 0.00276533, 0.002627982, 0.0001234356, -0.004101256, -9.935946, 0, 0, 32.03432, 1, 1, 1000, 1000
 131768938, 1, 0.003448515, 0.002664834, 0.002530719, 0.0002607529, -0.003436278, -9.934255, 0, 0, 32.03432, 1, 1, 760, 800
 131808922, 0, 0.002272772, 0.0005924298, 0.00264663, -0.000172521, -0.00366335, -9.919717, 0, 0, 32.03605, 1, 1, 1000, 1000
 131808922, 1, 0.002152027, 0.000582625, 0.00261309, -0.0003789713, -0.002959172, -9.91866, 0, 0, 32.03605, 1, 1, 760, 800
 131848906, 0, 0.002318871, 0.002397798, 0.002572001, -0.0003586601, -0.002977899, -9.892759, 0, 0, 32.03778, 1, 1, 1000, 1000
 131848906, 1, 0.002252525, 0.00267171, 0.002540848, -0.002282931, -0.002677617, -9.89427, 0, 0, 32.03778, 1, 1, 760, 800
 131888890, 0, 0.002372951, 0.003214626, 0.002287911, -0.0003605299, -0.002333267, -9.884247, 0, 0, 32.03951, 1, 1, 1000, 1000
 131888890, 1, 0.00222057, 0.00340554, 0.002449072, 0.0003086099, -0.002756763, -9.885672, 0, 0, 32.03951, 1, 1, 760, 800
 131928874, 0, 0.002109678, 0.003669284, 0.002336706, 0.0006810655, -0.002952117, -9.87964, 0, 0, 32.04124, 1, 1, 1000, 1000
 131928874, 1, 0.002037537, 0.003528064, 0.002299844, -0.003112217, -0.002959965, -9.878948, 0, 0, 32.04124, 1, 1, 760, 800
 131968858, 0, 0.0002827046, 0.00340983, 0.002064458, -0.0005860793, -0.001675935, -9.84896, 0, 0, 32.04296, 1, 1, 1000, 1000
 131968858, 1, 0.0001837034, 0.003685288, 0.001983984, -0.001289766, -0.004929974, -9.849965, 0, 0, 32.04296, 1, 1, 760, 800
 132008842, 0, 0.000412053, 0.0003153713, 0.001888125, -0.0008182863, -0.001558735, -9.845701, 0, 0, 32.04469, 1, 1, 1000, 1000
 132008842, 1, 0.0003536922, 0.0002634746, 0.001938056, -0.001647086, -0.0006285063, -9.847675, 0, 0, 32.04469, 1, 1, 760, 800
 132048826, 0, 0.001796387, 0.0006114887, 0.001934058, -0.0006392899, -0.002054612, -9.840194, 0, 0, 32.04642, 1, 1, 1000, 1000
 132048826, 1, 0.001823043, 0.0005609357, 0.001893044, 0.0004878101, -0.004156984, -9.841915, 0, 0, 32.04638, 1, 1, 760, 800
 132088810, 0, 0.003253296, 0.002923618, 0.001679609, -0.001397134, -0.0005520788, -9.818645, 0, 0, 32.04815, 1, 1, 1000, 1000
 132088810, 1, 0.003384268, 0.003080978, 0.001611055, -0.002573757, -0.001706187, -9.822124, 0, 0, 32.0481, 1, 1, 760, 800
 132128794, 0, 0.00443081, 0.001596242, 0.001639383, -0.00160041, -0.001799249, -9.811501, 0, 0, 32.04987, 1, 1, 1000, 1000
 132128794, 1, 0.004420959, 0.001591324, 0.001751576, -0.0004576217, -0.002554429, -9.811812, 0, 0, 32.04983, 1, 1, 760, 800
 132168778, 0, 0.004305748, 0.001654015, 0.001696067, -0.001342688, -0.001410819, -9.810976, 0, 0, 32.0516, 1, 1, 1000, 1000
 132168778, 1, 0.004416648, 0.001847981, 0.00153807, -0.001230916, -0.003440128, -9.812922, 0, 0, 32.05156, 1, 1, 760, 800
 132208762, 0, 0.002568375, 0.001599549, 0.001597052, -0.001376708, -0.001332256, -9.805779, 0, 0, 32.05333, 1, 1, 1000, 1000
 132208762, 1, 0.002771395, 0.001687591, 0.001642092, -0.0004266128, -0.002056298, -9.804226, 0, 0, 32.05328, 1, 1, 760, 800
 132248746, 0, 0.001765303, 0.002305179, 0.001257934, -0.00198927, -0.000787577, -9.794979, 0, 0, 32.05505, 1, 1, 1000, 1000
 132248746, 1, 0.001750938, 0.002396583, 0.001181693, -0.001712432, -0.00225054, -9.797071, 0, 0, 32.05501, 1, 1, 760, 800
 132289563, 0, 0.0002158246, 0.003187214, 0.0009209205, -0.00131285, -0.001429123, -9.782543, 0, 0, 32.05682, 1, 1, 1000, 1000
 132289563, 1, 0.0002294383, 0.003265957, 0.0009832596, -0.001055008, -0.00284728, -9.78172, 0, 0, 32.05682, 1, 1, 760, 800
 132329547, 0, 0.0003363035, 0.0005958696, 0.0006531636, -0.002326105, -0.001664666, -9.783028, 0, 0, 32.05855, 1, 1, 1000, 1000
 132329547, 1, 0.0004277053, 0.0006638889, 0.0008941417, -0.001441954, -0.001354221, -9.779263, 0, 0, 32.05855, 1, 1, 760, 800
 132369531, 0, 0.0004185871, 0.002919218, 0.0006668996, -0.001632421, -0.0002389963, -9.780473, 0, 0, 32.06027, 1, 1, 1000, 1000
 132369531, 1, 0.0002795517, 0.002968363, 0.0006595158, 1.908961E-06, -0.002473578, -9.778234, 0, 0, 32.06027, 1, 1, 760, 800
 132409515, 0, 0.0003945553, 0.002873075, 0.0005478505, -0.000777742, -0.001660361, -9.779184, 0, 0, 32.062, 1, 1, 1000, 1000
 132409515, 1, 0.0004252907, 0.002822399, 0.0007004197, -0.00306282, -0.003708297, -9.780879, 0, 0, 32.062, 1, 1, 760, 800
 132449499, 0, 0.001600403, 0.002788651, 0.0006246082, -0.002064114, 0.0001320894, -9.775935, 0, 0, 32.06372, 1, 1, 1000, 1000
 132449499, 1, 0.00158424, 0.002817161, 0.0003569385, -0.002526574, -0.003229616, -9.776983, 0, 0, 32.06372, 1, 1, 760, 800
 132489483, 0, 0.001435967, 0.002748127, 0.0003819269, -0.002664804, -0.0009862712, -9.774951, 0, 0, 32.06545, 1, 1, 1000, 1000
 132489483, 1, 0.001411828, 0.002790823, 0.0005022534, -0.001362563, -0.003021328, -9.774309, 0, 0, 32.06545, 1, 1, 760, 800
 132529467, 0, -0.0003103751, 0.001051064, 2.896907E-05, -0.001876253, -0.0007225469, -9.768782, 0, 0, 32.06717, 1, 1, 1000, 1000
 132529467, 1, -0.0003537401, 0.00136049, -4.124085E-05, -0.002495282, 0.0007995042, -9.770334, 0, 0, 32.06717, 1, 1, 760, 800
 132569451, 0, 0.0004239947, 0.001543266, -4.06744E-05, -0.002545923, -0.0008007729, -9.76485, 0, 0, 32.0689, 1, 1, 1000, 1000
 132569451, 1, 0.0005737949, 0.001726689, 0.0001319791, -0.003509339, -0.0001949329, -9.765755, 0, 0, 32.0689, 1, 1, 760, 800
 132609435, 0, 0.001469273, 0.002945946, -9.051307E-05, -0.003695908, -0.0003734424, -9.766583, 0, 0, 32.07062, 1, 1, 1000, 1000
 132609435, 1, 0.001376689, 0.003166139, 1.849321E-05, -0.002223502, 0.000673365, -9.763442, 0, 0, 32.07062, 1, 1, 760, 800
 132649419, 0, 0.003428204, 0.00374788, -9.517369E-05, -0.003159084, -0.001823788, -9.761059, 0, 0, 32.07234, 1, 1, 1000, 1000
 132649419, 1, 0.003541363, 0.00388048, -0.0001678212, -0.002381099, 3.894132E-05, -9.763039, 0, 0, 32.07234, 1, 1, 760, 800
 132689403, 0, 0.005090076, 0.004933345, -8.908282E-05, -0.002658143, 9.414715E-06, -9.766724, 0, 0, 32.07407, 1, 1, 1000, 1000
 132689403, 1, 0.005088612, 0.004868217, 4.598143E-05, -0.001227673, -0.002163682, -9.766825, 0, 0, 32.07407, 1, 1, 760, 800
 132729387, 0, 0.005757553, 0.004865684, -5.329336E-05, -0.001725153, 0.0008699471, -9.768476, 0, 0, 32.07579, 1, 1, 1000, 1000
 132729387, 1, 0.005773178, 0.00499273, -3.854029E-05, -0.005357048, 0.0008697883, -9.770386, 0, 0, 32.07579, 1, 1, 760, 800
 132769371, 0, 0.00366266, 0.003725865, -5.283127E-06, -0.003727166, -0.0006505207, -9.769098, 0, 0, 32.07751, 1, 1, 1000, 1000
 132769371, 1, 0.003670128, 0.00369761, -0.0001118941, -0.002857241, 0.001178013, -9.768285, 0, 0, 32.07751, 1, 1, 760, 800
 132809355, 0, 0.003896038, 0.002557356, 4.61152E-05, -0.002515367, -0.0008809403, -9.770597, 0, 0, 32.07924, 1, 1, 1000, 1000
 132809355, 1, 0.003836144, 0.002646108, 4.536139E-05, -0.001946186, -1.052364E-05, -9.771401, 0, 0, 32.07924, 1, 1, 760, 800
 132849339, 0, 0.003186415, 0.001799651, 9.79898E-05, -0.002879323, 0.0005392773, -9.772322, 0, 0, 32.08096, 1, 1, 1000, 1000
 132849339, 1, 0.003126453, 0.001443647, -1.166071E-05, -0.0005144725, -0.0005469064, -9.771533, 0, 0, 32.08096, 1, 1, 760, 800
 132889323, 0, 0.004179083, 0.003643659, 0.0001881826, -0.00222415, -0.000655842, -9.773267, 0, 0, 32.08268, 1, 1, 1000, 1000
 132889323, 1, 0.004055122, 0.003748102, 0.0002192997, -0.00180537, 0.000698428, -9.77512, 0, 0, 32.08268, 1, 1, 760, 800
 132929307, 0, 0.0008892667, 0.00268822, 0.0002389914, -0.002324623, 0.0005050186, -9.775767, 0, 0, 32.0844, 1, 1, 1000, 1000
 132929307, 1, 0.0007731734, 0.002603077, 0.0003762696, -0.002631912, -0.0007056232, -9.776411, 0, 0, 32.0844, 1, 1, 760, 800
 132969291, 0, -3.413093E-05, 0.00180049, 0.0003726242, -0.002656771, -3.048555E-05, -9.779786, 0, 0, 32.08612, 1, 1, 1000, 1000
 132969291, 1, 7.395945E-06, 0.001878546, 0.0004618554, -0.0009444384, -0.001999437, -9.781467, 0, 0, 32.08612, 1, 1, 760, 800
 133009275, 0, 0.0005373732, 0.001113758, 0.0006126498, -0.003483463, 0.000472162, -9.783201, 0, 0, 32.08785, 1, 1, 1000, 1000
 133009275, 1, 0.0007631322, 0.001043758, 0.0005850574, -0.003171539, 0.0009189943, -9.780987, 0, 0, 32.08785, 1, 1, 760, 800
 133049259, 0, 0.0002653891, 0.001207397, 0.0008936122, -0.003325101, 0.0005770908, -9.783352, 0, 0, 32.08957, 1, 1, 1000, 1000
 133049259, 1, 0.0003265609, 0.000973943, 0.000834131, -0.002148298, -0.0007757524, -9.783009, 0, 0, 32.08957, 1, 1, 760, 800
 133089243, 0, 0.004417517, 0.001979533, 0.001198826, -0.003286753, 0.0003976139, -9.785401, 0, 0, 32.09129, 1, 1, 1000, 1000
 133089243, 1, 0.004358293, 0.002031531, 0.001113827, -0.0011856, 0.003991271, -9.78833, 0, 0, 32.09129, 1, 1, 760, 800
 133129227, 0, 0.004188845, 0.001089445, 0.001451813, -0.003343247, -0.0002677789, -9.791806, 0, 0, 32.09301, 1, 1, 1000, 1000
 133129227, 1, 0.004229155, 0.001087537, 0.001377971, -0.004158152, 0.001739852, -9.789694, 0, 0, 32.09301, 1, 1, 760, 800
 133169211, 0, 0.004141255, 0.001666364, 0.001423402, -0.003502787, 0.001215363, -9.791311, 0, 0, 32.09473, 1, 1, 1000, 1000
 133169211, 1, 0.004037822, 0.001572239, 0.001364715, -0.005129991, -0.0007965472, -9.791664, 0, 0, 32.09473, 1, 1, 760, 800
 133209195, 0, 0.004017734, 0.0006666912, 0.001558335, -0.003289849, 0.001283693, -9.793819, 0, 0, 32.09645, 1, 1, 1000, 1000
 133209195, 1, 0.004243442, 0.0008088372, 0.00151611, -0.003206863, 0.0004632446, -9.791136, 0, 0, 32.09645, 1, 1, 760, 800
 133249179, 0, 0.00399902, 0.0008291873, 0.00151044, -0.003747498, 0.002044215, -9.793783, 0, 0, 32.09818, 1, 1, 1000, 1000
 133249179, 1, 0.00379428, 0.0009754738, 0.001532376, -0.004125169, -0.0001667011, -9.795801, 0, 0, 32.09818, 1, 1, 760, 800
 133289163, 0, 0.003916293, 0.005182718, 0.001585873, -0.002890877, 8.551805E-05, -9.790871, 0, 0, 32.09989, 1, 1, 1000, 1000
 133289163, 1, 0.003975851, 0.005022944, 0.001511858, -0.005766531, -0.001296518, -9.792078, 0, 0, 32.09989, 1, 1, 760, 800
 133329147, 0, 0.003855178, 0.002561707, 0.001697206, -0.004431138, 0.0007391673, -9.794402, 0, 0, 32.10161, 1, 1, 1000, 1000
 133329147, 1, 0.003940979, 0.002754175, 0.001797498, -0.004146799, -0.0007926453, -9.795022, 0, 0, 32.10161, 1, 1, 760, 800
 133369131, 0, 0.003772002, 0.002682342, 0.001702594, -0.003591948, 0.0002343386, -9.795571, 0, 0, 32.10329, 1, 1, 1000, 1000
 133369131, 1, 0.003791915, 0.002908216, 0.001556838, -0.003462567, 0.001274031, -9.794044, 0, 0, 32.10333, 1, 1, 760, 800
 133409115, 0, 0.003811388, 0.002687202, 0.001725477, -0.003754001, 0.000431088, -9.795112, 0, 0, 32.10501, 1, 1, 1000, 1000
 133409115, 1, 0.003725773, 0.002608998, 0.001573633, -0.004089633, 0.001265625, -9.794439, 0, 0, 32.10505, 1, 1, 760, 800
 133449099, 0, 0.003730133, 0.002652176, 0.001700514, -0.003768453, 0.0002970243, -9.79602, 0, 0, 32.10673, 1, 1, 1000, 1000
 133449099, 1, 0.003679469, 0.002701055, 0.001704626, -0.0008310111, -0.001422607, -9.795666, 0, 0, 32.10677, 1, 1, 760, 800
 133489083, 0, -0.0004093317, 0.002630707, 0.001768859, -0.004686878, 0.0005271874, -9.795821, 0, 0, 32.10845, 1, 1, 1000, 1000
 133489083, 1, -0.0004225141, 0.002726761, 0.001848855, -0.003499529, 0.001298313, -9.794936, 0, 0, 32.10849, 1, 1, 760, 800
 133529067, 0, -0.0002428638, 0.002584351, 0.001780175, -0.003776494, 0.0007083365, -9.798372, 0, 0, 32.11017, 1, 1, 1000, 1000
 133529067, 1, -0.0003634569, 0.002770648, 0.001687314, -0.002266458, 0.00236498, -9.799665, 0, 0, 32.11021, 1, 1, 760, 800
 133569051, 0, -0.0008092269, 0.001590976, 0.002074702, -0.004097581, 0.001614053, -9.809765, 0, 0, 32.11189, 1, 1, 1000, 1000
 133569051, 1, -0.0005794151, 0.001562627, 0.002052105, -0.005855987, 0.001507933, -9.810036, 0, 0, 32.11193, 1, 1, 760, 800
 133609035, 0, -0.002135225, 6.809799E-05, 0.002118906, -0.003949435, 0.0007289455, -9.811167, 0, 0, 32.1136, 1, 1, 1000, 1000
 133609035, 1, -0.002108247, 0.0001012239, 0.002158911, -0.00268034, -0.0006823526, -9.810619, 0, 0, 32.11365, 1, 1, 760, 800
 133649019, 0, 0.0005598819, 0.0004550857, 0.002056477, -0.003563907, -0.0002385232, -9.808565, 0, 0, 32.11532, 1, 1, 1000, 1000
 133649019, 1, 0.0002578171, 0.000458679, 0.002029777, -0.003602767, -0.000733781, -9.808154, 0, 0, 32.11536, 1, 1, 760, 800
 133689003, 0, 0.001793263, 0.003397428, 0.00207606, -0.003809751, -1.026089E-05, -9.807275, 0, 0, 32.11704, 1, 1, 1000, 1000
 133689003, 1, 0.00190846, 0.003453698, 0.001976426, -0.003982549, 0.001064809, -9.807819, 0, 0, 32.11708, 1, 1, 760, 800
 133728987, 0, 0.001145199, 0.003697476, 0.002047944, -0.005407575, 0.0003161422, -9.812037, 0, 0, 32.11876, 1, 1, 1000, 1000
 133728987, 1, 0.001002271, 0.003696546, 0.002059419, -0.003683409, 0.0004000246, -9.812647, 0, 0, 32.11876, 1, 1, 760, 800
 133768971, 0, 0.0003735616, 0.001443498, 0.002131036, -0.004828557, 0.00100277, -9.811716, 0, 0, 32.12048, 1, 1, 1000, 1000
 133768971, 1, 0.0004711149, 0.001317597, 0.002206502, -0.005517894, -0.0007850694, -9.813407, 0, 0, 32.12048, 1, 1, 760, 800
 133808955, 0, 0.0005004075, 0.002295776, 0.002128059, -0.003757409, 0.0004896357, -9.81245, 0, 0, 32.12219, 1, 1, 1000, 1000
 133808955, 1, 0.000421669, 0.002212932, 0.001975848, -0.005575224, 0.001141412, -9.812724, 0, 0, 32.12219, 1, 1, 760, 800
 133848939, 0, 1.288074E-06, 0.00438511, 0.002206308, -0.004507335, -2.76415E-05, -9.804066, 0, 0, 32.12391, 1, 1, 1000, 1000
 133848939, 1, -0.000167007, 0.004512428, 0.002226191, -0.002073792, -5.612327E-05, -9.803698, 0, 0, 32.12391, 1, 1, 760, 800
 133888923, 0, 0.0007885226, 0.004650505, 0.002420866, -0.004792117, 0.001932335, -9.805562, 0, 0, 32.12563, 1, 1, 1000, 1000
 133888923, 1, 0.0008602103, 0.004739125, 0.002381529, -0.002136445, 0.00269789, -9.805587, 0, 0, 32.12563, 1, 1, 760, 800
 133928907, 0, -2.644875E-05, 0.0004173011, 0.002480582, -0.00521316, 0.0008426377, -9.81515, 0, 0, 32.12734, 1, 1, 1000, 1000
 133928907, 1, 4.076417E-05, 0.0004396024, 0.002641819, -0.003509381, 0.002156262, -9.814592, 0, 0, 32.12734, 1, 1, 760, 800
 133968891, 0, -1.382893E-05, 0.0001207406, 0.002442152, -0.005172394, 0.001243932, -9.810171, 0, 0, 32.12906, 1, 1, 1000, 1000
 133968891, 1, -0.000244246, 0.0001323521, 0.002538088, -0.003435839, 0.0005323082, -9.809084, 0, 0, 32.12906, 1, 1, 760, 800
 134008875, 0, 0.0005149265, -0.0002107984, 0.002231934, -0.00429472, 0.001314695, -9.808382, 0, 0, 32.13078, 1, 1, 1000, 1000
 134008875, 1, 0.000412074, -0.0001358002, 0.002424652, -0.004115198, -0.0001235829, -9.810941, 0, 0, 32.13078, 1, 1, 760, 800
 134048859, 0, 0.002042854, 6.435833E-05, 0.002256395, -0.004614442, 0.001389944, -9.811863, 0, 0, 32.13249, 1, 1, 1000, 1000
 134048859, 1, 0.002336232, 0.0002812255, 0.002078376, -0.004101798, 0.002927299, -9.812107, 0, 0, 32.13249, 1, 1, 760, 800
 134088843, 0, 0.004486026, 0.00339557, 0.002235168, -0.004016575, 0.002007645, -9.811706, 0, 0, 32.1342, 1, 1, 1000, 1000
 134088843, 1, 0.004455934, 0.003543855, 0.002306182, -0.003749311, -0.001522741, -9.810981, 0, 0, 32.1342, 1, 1, 760, 800
 134128827, 0, 0.00190817, 0.002305155, 0.002015826, -0.004407106, 0.001737293, -9.811165, 0, 0, 32.13592, 1, 1, 1000, 1000
 134128827, 1, 0.001857192, 0.002586717, 0.001901919, -0.005500848, -0.001340196, -9.811321, 0, 0, 32.13588, 1, 1, 760, 800
 134168811, 0, 0.001254475, 0.002182191, 0.001942559, -0.004180375, 0.0008616247, -9.810711, 0, 0, 32.13763, 1, 1, 1000, 1000
 134168811, 1, 0.001219599, 0.002189952, 0.001991342, -0.004555169, 0.002388632, -9.812269, 0, 0, 32.13759, 1, 1, 760, 800
 134208795, 0, 0.002894907, 0.003711965, 0.001733386, -0.003548864, 0.0004777153, -9.813165, 0, 0, 32.13935, 1, 1, 1000, 1000
 134208795, 1, 0.002858471, 0.003744903, 0.001777012, -0.003924829, 0.001095993, -9.813652, 0, 0, 32.13931, 1, 1, 760, 800
 134248779, 0, 0.002778279, 0.003387729, 0.001711851, -0.003830714, 0.0008493593, -9.812223, 0, 0, 32.14106, 1, 1, 1000, 1000
 134248779, 1, 0.002724489, 0.003415294, 0.001617713, -0.002675559, 0.001634909, -9.812864, 0, 0, 32.14102, 1, 1, 760, 800
 134288763, 0, 0.004833797, 0.005462701, 0.001663743, -0.004024549, 0.001238823, -9.813431, 0, 0, 32.14278, 1, 1, 1000, 1000
 134288763, 1, 0.004933157, 0.005369818, 0.001528835, -0.004748028, 0.002062633, -9.812073, 0, 0, 32.14274, 1, 1, 760, 800
 134328747, 0, 0.004551535, 0.005305717, 0.00157717, -0.004380632, 0.001232437, -9.812984, 0, 0, 32.14449, 1, 1, 1000, 1000
 134328747, 1, 0.004591994, 0.005405874, 0.00145287, -0.003396884, -7.745002E-07, -9.814681, 0, 0, 32.14445, 1, 1, 760, 800
 134369564, 0, 0.003419315, 0.003788174, 0.00150246, -0.004036464, 0.001617586, -9.811901, 0, 0, 32.14625, 1, 1, 1000, 1000
 134369564, 1, 0.003482325, 0.003929016, 0.001326443, -0.004994177, 0.001066662, -9.815166, 0, 0, 32.14625, 1, 1, 760, 800
 134409548, 0, 0.003539707, 0.003415164, 0.001369438, -0.004441243, 0.001996486, -9.810907, 0, 0, 32.14796, 1, 1, 1000, 1000
 134409548, 1, 0.00355301, 0.003554374, 0.001405762, -0.006491627, 0.004184338, -9.811543, 0, 0, 32.14796, 1, 1, 760, 800
 134449532, 0, 0.001916606, 0.003371747, 0.001208344, -0.004752396, 0.001763343, -9.806782, 0, 0, 32.14968, 1, 1, 1000, 1000
 134449532, 1, 0.00186501, 0.003232072, 0.001112966, -0.004428622, -9.4202E-05, -9.809059, 0, 0, 32.14968, 1, 1, 760, 800
 134489516, 0, 0.003375988, 0.003743021, 0.0008468674, -0.003684933, 0.001732419, -9.805294, 0, 0, 32.15139, 1, 1, 1000, 1000
 134489516, 1, 0.003347206, 0.003823933, 0.0007375758, -0.003558666, 0.001880235, -9.806643, 0, 0, 32.15139, 1, 1, 760, 800
 134529500, 0, 0.005205285, 0.003871278, 0.0006077513, -0.003373826, 0.002172566, -9.808218, 0, 0, 32.1531, 1, 1, 1000, 1000
 134529500, 1, 0.005221815, 0.003839917, 0.0007663603, -0.005118598, 0.003010003, -9.8075, 0, 0, 32.1531, 1, 1, 760, 800
 134569484, 0, 0.001901079, 0.00126867, 0.0005289455, -0.00298026, 0.002050577, -9.812362, 0, 0, 32.15482, 1, 1, 1000, 1000
 134569484, 1, 0.001649189, 0.001033893, 0.0006778173, -0.004819637, 0.002847991, -9.813295, 0, 0, 32.15482, 1, 1, 760, 800
 134609468, 0, 0.0005705886, 0.0002387042, 0.0005177948, -0.004626527, 0.001899036, -9.810916, 0, 0, 32.15653, 1, 1, 1000, 1000
 134609468, 1, 0.0006579461, 0.0003535372, 0.0006906682, -0.003619779, 0.002234945, -9.808247, 0, 0, 32.15653, 1, 1, 760, 800
 134649452, 0, 0.002173502, 0.001657169, 0.0005031558, -0.005147341, 0.001954522, -9.808203, 0, 0, 32.15824, 1, 1, 1000, 1000
 134649452, 1, 0.002157426, 0.001687429, 0.0007131182, -0.004174155, 0.00243963, -9.808858, 0, 0, 32.15824, 1, 1, 760, 800
 134689436, 0, 0.006863154, 0.006815785, 0.0004686615, -0.003877276, 0.001301801, -9.798569, 0, 0, 32.15995, 1, 1, 1000, 1000
 134689436, 1, 0.006826911, 0.006948607, 0.0005800923, -0.005536524, 0.004145883, -9.797808, 0, 0, 32.15995, 1, 1, 760, 800
 134729420, 0, 0.006495826, 0.006459013, 0.0005649271, -0.004353427, 0.001545229, -9.798037, 0, 0, 32.16167, 1, 1, 1000, 1000
 134729420, 1, 0.006493118, 0.006637882, 0.0006002469, -0.00385639, 0.002054781, -9.797082, 0, 0, 32.16167, 1, 1, 760, 800
 134769404, 0, 0.003342476, 0.001050771, 0.0004446548, -0.004563414, 0.002816352, -9.801862, 0, 0, 32.16338, 1, 1, 1000, 1000
 134769404, 1, 0.003328465, 0.001191658, 0.0003063506, -0.002287834, 0.002698205, -9.801635, 0, 0, 32.16338, 1, 1, 760, 800
 134809388, 0, 0.002813226, 0.001947845, 0.0004336787, -0.005028119, 0.002387668, -9.802876, 0, 0, 32.16509, 1, 1, 1000, 1000
 134809388, 1, 0.003002863, 0.002078862, 0.0002730284, -0.002361185, 0.002543403, -9.80432, 0, 0, 32.16509, 1, 1, 760, 800
 134849372, 0, 0.001406546, 0.001400696, 0.0004454038, -0.004048879, 0.002283287, -9.797446, 0, 0, 32.1668, 1, 1, 1000, 1000
 134849372, 1, 0.001391186, 0.001385631, 0.0003371614, -0.002639395, -0.0005245636, -9.796221, 0, 0, 32.1668, 1, 1, 760, 800
 134889356, 0, 0.00176944, 0.003024566, 0.0003897946, -0.002550727, 0.001780061, -9.802988, 0, 0, 32.16851, 1, 1, 1000, 1000
 134889356, 1, 0.001643245, 0.003041432, 0.0003452167, -0.005115148, 0.002778251, -9.802824, 0, 0, 32.16851, 1, 1, 760, 800
 134929340, 0, 0.0007769229, 0.003256892, 0.0005778397, -0.00304299, 0.002017475, -9.805841, 0, 0, 32.17022, 1, 1, 1000, 1000
 134929340, 1, 0.0008082498, 0.003187271, 0.0006537346, -0.004477881, 0.00140931, -9.806738, 0, 0, 32.17022, 1, 1, 760, 800
 134969324, 0, -0.000470512, 0.002707839, 0.000717411, -0.003312809, 0.001658585, -9.807659, 0, 0, 32.17193, 1, 1, 1000, 1000
 134969324, 1, -0.000606694, 0.002539739, 0.0006815412, -0.005205422, 0.0005038097, -9.80731, 0, 0, 32.17193, 1, 1, 760, 800
 135009308, 0, 0.0001473732, 0.001362156, 0.0009126611, -0.003593762, 0.001141951, -9.801265, 0, 0, 32.17365, 1, 1, 1000, 1000
 135009308, 1, 0.0003066625, 0.001405092, 0.0008667415, -0.003158492, 0.003268197, -9.801412, 0, 0, 32.17365, 1, 1, 760, 800
 135049292, 0, 0.001931571, 0.001365462, 0.00113551, -0.003499344, 0.001917235, -9.803222, 0, 0, 32.17535, 1, 1, 1000, 1000
 135049292, 1, 0.001938648, 0.001412371, 0.0008525612, -0.005579789, 0.001142946, -9.802147, 0, 0, 32.17535, 1, 1, 760, 800
 135089276, 0, 0.005052706, 0.003133357, 0.001243292, -0.003599118, 0.001286254, -9.803267, 0, 0, 32.17706, 1, 1, 1000, 1000
 135089276, 1, 0.005094262, 0.003292779, 0.001405088, -0.002786911, 0.004463891, -9.801672, 0, 0, 32.17706, 1, 1, 760, 800
 135129260, 0, 0.005070298, 0.003413711, 0.001347013, -0.004017455, 0.002833137, -9.805891, 0, 0, 32.17877, 1, 1, 1000, 1000
 135129260, 1, 0.005219207, 0.003279295, 0.001426697, -0.002675734, 0.001857396, -9.804289, 0, 0, 32.17877, 1, 1, 760, 800
 135169244, 0, 0.003860164, 0.001281517, 0.001592637, -0.003594336, 0.002898134, -9.805418, 0, 0, 32.18048, 1, 1, 1000, 1000
 135169244, 1, 0.003785924, 0.001388049, 0.001534649, -0.005215549, 0.001359815, -9.804389, 0, 0, 32.18048, 1, 1, 760, 800
 135209228, 0, 0.002891712, 0.001415767, 0.001916582, -0.004103578, 0.0017385, -9.805799, 0, 0, 32.18219, 1, 1, 1000, 1000
 135209228, 1, 0.002848698, 0.001465596, 0.001854833, -0.004821044, 0.001618374, -9.804589, 0, 0, 32.18219, 1, 1, 760, 800
 135249212, 0, 0.003933666, 0.001386017, 0.002149371, -0.002565012, 0.002395385, -9.802069, 0, 0, 32.1839, 1, 1, 1000, 1000
 135249212, 1, 0.003878573, 0.00128205, 0.002089128, -0.001034419, 0.0003601071, -9.801462, 0, 0, 32.1839, 1, 1, 760, 800
 135289196, 0, 0.007316806, 0.002961968, 0.002049054, -0.002756434, 0.002212126, -9.808404, 0, 0, 32.18561, 1, 1, 1000, 1000
 135289196, 1, 0.007339304, 0.003080086, 0.001958027, -0.006315395, 0.002214789, -9.808614, 0, 0, 32.18561, 1, 1, 760, 800
 135329180, 0, 0.006569707, 0.002550708, 0.002015316, -0.00308327, 0.002553227, -9.808705, 0, 0, 32.18732, 1, 1, 1000, 1000
 135329180, 1, 0.006380934, 0.003022703, 0.002114698, -0.002422092, 0.00250525, -9.809139, 0, 0, 32.18732, 1, 1, 760, 800
 135369164, 0, 0.002015952, 0.001460384, 0.001892888, -0.00375341, 0.001674582, -9.811256, 0, 0, 32.18903, 1, 1, 1000, 1000
 135369164, 1, 0.001963721, 0.001523324, 0.002003518, -0.003170379, 2.159754E-05, -9.814047, 0, 0, 32.18903, 1, 1, 760, 800
 135409148, 0, 7.862022E-05, 9.557405E-05, 0.002011497, -0.003113963, 0.002571396, -9.802226, 0, 0, 32.19073, 1, 1, 1000, 1000
 135409148, 1, 8.105591E-05, 1.163988E-05, 0.002022574, -0.00339651, 0.002823044, -9.802315, 0, 0, 32.19073, 1, 1, 760, 800
 135449132, 0, 0.001387147, 0.003657724, 0.001950325, -0.0019201, 0.002561226, -9.813542, 0, 0, 32.1924, 1, 1, 1000, 1000
 135449132, 1, 0.00139528, 0.003635719, 0.001762666, -0.005593131, 0.001685696, -9.812989, 0, 0, 32.19244, 1, 1, 760, 800
 135489116, 0, 0.003835432, 0.006053307, 0.001895696, -0.002411034, 0.00197267, -9.810586, 0, 0, 32.19411, 1, 1, 1000, 1000
 135489116, 1, 0.003673735, 0.006166806, 0.001960929, -0.003596712, 0.003158829, -9.810271, 0, 0, 32.19415, 1, 1, 760, 800
 135529100, 0, 0.00421881, 0.006223664, 0.001887738, -0.003089416, 0.001143755, -9.814617, 0, 0, 32.19581, 1, 1, 1000, 1000
 135529100, 1, 0.004285719, 0.006208043, 0.001839041, -0.001397316, 0.001748252, -9.813292, 0, 0, 32.19585, 1, 1, 760, 800
 135569084, 0, 0.001622575, 0.002029939, 0.001641762, -0.003140518, 0.00243245, -9.815156, 0, 0, 32.19752, 1, 1, 1000, 1000
 135569084, 1, 0.0014634, 0.002401505, 0.001702894, -0.002555124, 0.001449855, -9.814149, 0, 0, 32.19756, 1, 1, 760, 800
 135609068, 0, 0.0002116417, -0.001722955, 0.001576653, -0.003155144, 0.0009991584, -9.816547, 0, 0, 32.19923, 1, 1, 1000, 1000
 135609068, 1, 0.00013767, -0.00167243, 0.001626658, -0.0009280149, 0.004253338, -9.816019, 0, 0, 32.19927, 1, 1, 760, 800
 135649052, 0, 0.002758792, -0.000210473, 0.001631485, -0.002396929, 0.001202894, -9.812754, 0, 0, 32.20094, 1, 1, 1000, 1000
 135649052, 1, 0.002646141, -0.0001472527, 0.001732693, -0.002041105, 0.0003419964, -9.812572, 0, 0, 32.20098, 1, 1, 760, 800
 135689036, 0, 0.005643707, 0.00267618, 0.001598313, -0.002106134, 0.001671729, -9.813047, 0, 0, 32.20264, 1, 1, 1000, 1000
 135689036, 1, 0.005959996, 0.002720436, 0.001719974, -0.003491181, 0.0003507649, -9.809784, 0, 0, 32.20268, 1, 1, 760, 800
 135729020, 0, 0.002114244, 0.001878862, 0.001650383, -0.001811277, 0.0009621223, -10.75212, 0, 0, 32.20435, 1, 1, 1000, 1000
 135729020, 1, 0.00213639, 0.001990857, 0.001540176, -0.001381785, 0.001999441, -10.75211, 0, 0, 32.20439, 1, 1, 760, 800
 135769004, 0, 0.001411331, 0.001814615, 0.001607208, -0.002035218, 0.001178747, -10.22188, 0, 0, 32.20605, 1, 1, 1000, 1000
 135769004, 1, 0.00126315, 0.00183314, 0.001554108, -0.002319912, 0.001848981, -10.22144, 0, 0, 32.20609, 1, 1, 760, 800
 135808988, 0, 0.0005877342, -0.0007032328, 0.001437601, -0.001746014, 0.001687646, -10.03235, 0, 0, 32.20776, 1, 1, 1000, 1000
 135808988, 1, 0.0006424451, -0.0007998862, 0.001346172, -0.00308483, 0.001311939, -10.03164, 0, 0, 32.20776, 1, 1, 760, 800
 135848972, 0, 0.00130414, 0.0008010189, 0.001405534, -0.001231215, 0.001056487, -9.958845, 0, 0, 32.20947, 1, 1, 1000, 1000
 135848972, 1, 0.001143938, 0.000791078, 0.001318839, -0.002240435, 0.00335158, -9.957778, 0, 0, 32.20947, 1, 1, 760, 800
 135888956, 0, 0.004815524, 0.004204995, 0.001413954, -0.001991806, 0.001522018, -9.899982, 0, 0, 32.21117, 1, 1, 1000, 1000
 135888956, 1, 0.004835817, 0.004458591, 0.001372992, -0.001177669, 0.0006312137, -9.89874, 0, 0, 32.21117, 1, 1, 760, 800
 135928940, 0, 0.001775611, 0.0021853, 0.001353041, -0.00272568, 0.002155577, -9.84966, 0, 0, 32.21288, 1, 1, 1000, 1000
 135928940, 1, 0.001834232, 0.002256891, 0.001580615, -0.003466702, -0.001200437, -9.846278, 0, 0, 32.21288, 1, 1, 760, 800
 135968924, 0, 0.001100002, 0.00365112, 0.001327102, -0.001418837, 0.000149311, -9.798628, 0, 0, 32.21458, 1, 1, 1000, 1000
 135968924, 1, 0.000953931, 0.003840273, 0.001486459, -0.001383221, 0.002794699, -9.798767, 0, 0, 32.21458, 1, 1, 760, 800
 136008908, 0, -0.002382154, -0.001347299, 0.001396293, -0.002011961, 0.000835388, -9.769089, 0, 0, 32.21628, 1, 1, 1000, 1000
 136008908, 1, -0.002603017, -0.001483789, 0.001556625, -0.001100381, -0.0007810361, -9.769105, 0, 0, 32.21628, 1, 1, 760, 800
 136048892, 0, 0.002846937, 0.001405303, 0.001157435, -0.002176185, 0.001165558, -9.743982, 0, 0, 32.21799, 1, 1, 1000, 1000
 136048892, 1, 0.002872901, 0.00150644, 0.001050693, -0.00282639, 0.0007796746, -9.744568, 0, 0, 32.21799, 1, 1, 760, 800
 136088876, 0, 0.003676506, 0.001307048, 0.001141765, -0.001096092, -0.0002138333, -9.722095, 0, 0, 32.21969, 1, 1, 1000, 1000
 136088876, 1, 0.003755592, 0.001313265, 0.001146022, -0.001761805, -0.0003627473, -9.722691, 0, 0, 32.21969, 1, 1, 760, 800
 136128860, 0, 0.00240815, 0.002412321, 0.001118083, -0.0006116388, 0.001157097, -9.702336, 0, 0, 32.22139, 1, 1, 1000, 1000
 136128860, 1, 0.002366322, 0.002423543, 0.001012003, 0.001454544, -0.0005659508, -9.703698, 0, 0, 32.22139, 1, 1, 760, 800
 136168844, 0, 0.004000303, 0.002283411, 0.001111903, -0.00112185, 0.001385344, -9.700963, 0, 0, 32.2231, 1, 1, 1000, 1000
 136168844, 1, 0.003900899, 0.002298704, 0.001183645, 0.0006498182, -0.001040162, -9.701625, 0, 0, 32.2231, 1, 1, 760, 800
 136208828, 0, 0.0002759891, -0.0003707985, 0.001147497, -0.0009333144, 0.0008024588, -9.681173, 0, 0, 32.2248, 1, 1, 1000, 1000
 136208828, 1, 0.0001492133, -0.0002805687, 0.001037322, -4.149604E-05, -0.0008445405, -9.683108, 0, 0, 32.22476, 1, 1, 760, 800
 136248812, 0, 0.003118784, 0.002434493, 0.001142026, -0.002367498, -0.0003882957, -9.672256, 0, 0, 32.22651, 1, 1, 1000, 1000
 136248812, 1, 0.003038273, 0.002411939, 0.001061287, -0.002220496, 0.002916467, -9.671089, 0, 0, 32.22646, 1, 1, 760, 800
 136288796, 0, 0.002990111, 0.002377357, 0.001096621, -0.001144762, -0.0006480388, -9.676198, 0, 0, 32.22821, 1, 1, 1000, 1000
 136288796, 1, 0.0029213, 0.00247879, 0.001111813, -0.002129416, 0.002794795, -9.676242, 0, 0, 32.22816, 1, 1, 760, 800
 136328780, 0, 0.002986908, 0.002293198, 0.001149385, -0.001308368, -0.0002944451, -9.677832, 0, 0, 32.22991, 1, 1, 1000, 1000
 136328780, 1, 0.002840181, 0.002329018, 0.001048114, -0.0008824518, 0.000108978, -9.679078, 0, 0, 32.22987, 1, 1, 760, 800
 136368764, 0, 0.002926697, 0.002308082, 0.001115898, -0.001470582, 0.0001603359, -9.682246, 0, 0, 32.23161, 1, 1, 1000, 1000
 136368764, 1, 0.002949662, 0.002302425, 0.001010276, -0.001031281, -4.492293E-05, -9.683824, 0, 0, 32.23157, 1, 1, 760, 800
 136408748, 0, 0.002872329, 0.002332978, 0.001201184, -0.001519631, -8.488535E-05, -9.683201, 0, 0, 32.23331, 1, 1, 1000, 1000
 136408748, 1, 0.002892453, 0.002296481, 0.001061809, -0.002327309, 0.0001895853, -9.684854, 0, 0, 32.23328, 1, 1, 760, 800
 136449565, 0, 0.002883872, 0.002329918, 0.001111178, -0.001546261, 0.0006451332, -9.686473, 0, 0, 32.23506, 1, 1, 1000, 1000
 136449565, 1, 0.002965444, 0.002589314, 0.0009915198, -0.001722298, 0.0003479157, -9.686856, 0, 0, 32.23506, 1, 1, 760, 800
 136489549, 0, 0.002868466, 0.002260533, 0.001154178, -0.002204505, -1.518463E-05, -9.688015, 0, 0, 32.23676, 1, 1, 1000, 1000
 136489549, 1, 0.00268144, 0.002277726, 0.001148182, -0.0004452042, 0.0001947186, -9.689672, 0, 0, 32.23676, 1, 1, 760, 800
 136529533, 0, 0.002771035, 0.00225057, 0.001176456, -0.002028824, 0.0001591888, -9.691167, 0, 0, 32.23846, 1, 1, 1000, 1000
 136529533, 1, 0.002962993, 0.00242595, 0.001093053, 0.0002971362, 0.001753055, -9.689224, 0, 0, 32.23846, 1, 1, 760, 800
 136569517, 0, -0.001117358, 0.0002839154, 0.001150043, -0.001321902, -0.0004887836, -9.7122, 0, 0, 32.24017, 1, 1, 1000, 1000
 136569517, 1, -0.001360596, 0.0001252003, 0.001225846, -0.001397836, 0.0002213253, -9.713455, 0, 0, 32.24017, 1, 1, 760, 800
 136609501, 0, -0.003715354, -0.002223911, 0.001214008, -0.001767518, -0.0001564387, -9.715719, 0, 0, 32.24187, 1, 1, 1000, 1000
 136609501, 1, -0.003605356, -0.002242847, 0.001301544, 0.001108443, -0.002460937, -9.715875, 0, 0, 32.24187, 1, 1, 760, 800
 136649485, 0, -0.0007879136, 0.0005647952, 0.00118001, 0.0003750733, 0.0002341105, -9.732044, 0, 0, 32.24357, 1, 1, 1000, 1000
 136649485, 1, -0.0008771846, 0.0005523064, 0.001144516, -0.00127497, -0.0006319987, -9.728749, 0, 0, 32.24357, 1, 1, 760, 800
 136689469, 0, -0.0007663151, 0.0005637471, 0.001169606, -0.0009114939, -0.001433756, -9.732372, 0, 0, 32.24527, 1, 1, 1000, 1000
 136689469, 1, -0.0007198329, 0.0004417257, 0.001118835, 0.001424558, 0.0005574638, -9.730945, 0, 0, 32.24527, 1, 1, 760, 800
 136729453, 0, -0.0006642489, 0.0005462275, 0.001161667, -0.0004062927, -0.0006269027, -9.734348, 0, 0, 32.24697, 1, 1, 1000, 1000
 136729453, 1, -0.000786714, 0.000887146, 0.001154387, -0.002019619, 0.0002801809, -9.735916, 0, 0, 32.24697, 1, 1, 760, 800
 136769437, 0, 0.003202634, 0.002020788, 0.001243397, -0.0003951045, -8.541037E-05, -9.750557, 0, 0, 32.24867, 1, 1, 1000, 1000
 136769437, 1, 0.003071068, 0.001982711, 0.001373454, 0.001645297, 0.001015452, -9.749649, 0, 0, 32.24867, 1, 1, 760, 800
 136809421, 0, 0.0003122252, 0.000131145, 0.001241519, 0.001085056, -0.0008154156, -9.762918, 0, 0, 32.25037, 1, 1, 1000, 1000
 136809421, 1, -2.082505E-05, 0.000102878, 0.001125636, 0.001835391, -0.000960838, -9.76127, 0, 0, 32.25037, 1, 1, 760, 800
 136849405, 0, 0.001432542, 0.001678997, 0.001260529, 0.0007957952, -0.0001706388, -9.769363, 0, 0, 32.25207, 1, 1, 1000, 1000
 136849405, 1, 0.001422402, 0.001708333, 0.001134772, -0.001828255, -0.0005489697, -9.771317, 0, 0, 32.25207, 1, 1, 760, 800
 136889389, 0, 0.001445159, 0.001629904, 0.001254121, -0.001403652, 0.0006220228, -9.771569, 0, 0, 32.25377, 1, 1, 1000, 1000
 136889389, 1, 0.001473479, 0.001719144, 0.001233289, 0.001097862, -0.0008437265, -9.773094, 0, 0, 32.25377, 1, 1, 760, 800
 136929373, 0, 0.001464853, 0.001694835, 0.001321325, 0.0007852933, -9.087478E-05, -9.770222, 0, 0, 32.25547, 1, 1, 1000, 1000
 136929373, 1, 0.001335986, 0.001693985, 0.001307847, 0.001089127, 0.0004555781, -9.770001, 0, 0, 32.25547, 1, 1, 760, 800
 136969357, 0, 0.001744948, 0.002806601, 0.001299915, -0.0009324988, -0.0009570023, -9.797308, 0, 0, 32.25717, 1, 1, 1000, 1000
 136969357, 1, 0.001900845, 0.002952754, 0.001347558, -0.001224197, -0.001707741, -9.797136, 0, 0, 32.25717, 1, 1, 760, 800
 137009341, 0, 0.0004235658, 0.0006510972, 0.001298407, 0.001022332, -0.001183565, -9.807135, 0, 0, 32.25887, 1, 1, 1000, 1000
 137009341, 1, 0.0006498166, 0.000581248, 0.001301824, -0.002229038, -0.001419914, -9.807599, 0, 0, 32.25887, 1, 1, 760, 800
 137049325, 0, 0.003569596, 0.003793837, 0.001306218, -0.0008846164, -0.0007355012, -9.804761, 0, 0, 32.26057, 1, 1, 1000, 1000
 137049325, 1, 0.003346173, 0.003734511, 0.001146733, -0.0008157184, -2.804664E-05, -9.804474, 0, 0, 32.26057, 1, 1, 760, 800
 137089309, 0, 0.003426019, 0.003544283, 0.001265595, 0.0008495062, -0.0005255034, -9.806356, 0, 0, 32.26226, 1, 1, 1000, 1000
 137089309, 1, 0.003488229, 0.003655674, 0.001525701, -0.0004020318, -0.002384529, -9.807792, 0, 0, 32.26226, 1, 1, 760, 800
 137129293, 0, 0.003359301, 0.003560048, 0.001256654, -0.0004172009, -0.001046592, -9.806093, 0, 0, 32.26396, 1, 1, 1000, 1000
 137129293, 1, 0.003475766, 0.003649422, 0.001358891, 0.001421124, -0.001298677, -9.807192, 0, 0, 32.26396, 1, 1, 760, 800
 137169277, 0, 0.0004206565, 0.001511901, 0.001339642, -0.000375447, -0.001583468, -9.822556, 0, 0, 32.26566, 1, 1, 1000, 1000
 137169277, 1, 0.0005542472, 0.001706574, 0.001113019, 0.001581745, 0.001597442, -9.821801, 0, 0, 32.26566, 1, 1, 760, 800
 137209261, 0, -0.002238145, -0.00165668, 0.001391098, -0.0007365203, -0.0001761456, -9.827639, 0, 0, 32.26736, 1, 1, 1000, 1000
 137209261, 1, -0.002274712, -0.001817527, 0.001449631, 0.000609316, -0.001665044, -9.82686, 0, 0, 32.26736, 1, 1, 760, 800
 137249245, 0, 0.0003300569, 8.560895E-05, 0.001500852, -0.0001172664, -0.0004450256, -9.831158, 0, 0, 32.26906, 1, 1, 1000, 1000
 137249245, 1, 0.0004878456, 0.0001330149, 0.001380694, -0.001017561, -0.001149272, -9.831408, 0, 0, 32.26906, 1, 1, 760, 800
 137289229, 0, 0.003958173, 0.003374903, 0.001477688, -4.683841E-05, -0.001399045, -9.836939, 0, 0, 32.27075, 1, 1, 1000, 1000
 137289229, 1, 0.00406833, 0.003418327, 0.001447865, 0.0004376142, -0.001318274, -9.84049, 0, 0, 32.27075, 1, 1, 760, 800
 137329213, 0, 0.003369167, 0.002583759, 0.001534531, -0.0001535932, -0.0006663848, -9.838415, 0, 0, 32.27245, 1, 1, 1000, 1000
 137329213, 1, 0.003278977, 0.002742901, 0.001594664, 0.0006962125, 0.0003194711, -9.839997, 0, 0, 32.27245, 1, 1, 760, 800
 137369197, 0, 0.003346724, 0.00252322, 0.001478398, -0.0009146984, 0.0002597839, -9.837826, 0, 0, 32.27415, 1, 1, 1000, 1000
 137369197, 1, 0.00351945, 0.002397935, 0.001492991, -0.0007863106, -0.0003804461, -9.838256, 0, 0, 32.27415, 1, 1, 760, 800
 137409181, 0, 0.003276964, 0.002506814, 0.001528363, -3.239509E-05, -0.0004008026, -9.837421, 0, 0, 32.27584, 1, 1, 1000, 1000
 137409181, 1, 0.003306249, 0.002626071, 0.001462968, 0.002195049, 2.382252E-05, -9.838223, 0, 0, 32.27584, 1, 1, 760, 800
 137449165, 0, 0.00322184, 0.002555263, 0.001502335, -0.0003719427, -0.0002646653, -9.838217, 0, 0, 32.27754, 1, 1, 1000, 1000
 137449165, 1, 0.003221041, 0.002478935, 0.001351282, -0.0001689965, -0.0002105238, -9.839592, 0, 0, 32.27754, 1, 1, 760, 800
 137489149, 0, 0.002111184, 0.002436673, 0.001482777, 0.0003611665, -0.0001197253, -9.840888, 0, 0, 32.27924, 1, 1, 1000, 1000
 137489149, 1, 0.00215267, 0.002483366, 0.001512736, -0.0003886287, -0.0006272361, -9.83979, 0, 0, 32.27924, 1, 1, 760, 800
 137529133, 0, -4.595397E-05, 0.003085266, 0.001704019, 0.0001755658, -0.001605451, -9.854192, 0, 0, 32.28089, 1, 1, 1000, 1000
 137529133, 1, -9.055041E-05, 0.00319566, 0.00167147, 0.001614236, -0.002375201, -9.855576, 0, 0, 32.28093, 1, 1, 760, 800
 137569117, 0, -0.002096419, 0.002832233, 0.001690301, 0.0005429152, -0.0006517041, -9.852204, 0, 0, 32.28259, 1, 1, 1000, 1000
 137569117, 1, -0.002157027, 0.002913073, 0.001545503, -0.00118505, -0.0006100402, -9.851811, 0, 0, 32.28263, 1, 1, 760, 800
 137609101, 0, -0.002264544, -0.0005783775, 0.001676138, -0.0005400899, -0.001492732, -9.852015, 0, 0, 32.28428, 1, 1, 1000, 1000
 137609101, 1, -0.002551011, -0.0003268886, 0.001582039, -0.0002766289, -0.001711795, -9.85275, 0, 0, 32.28432, 1, 1, 760, 800
 137649085, 0, 0.001185563, -0.0002975244, 0.001689288, -0.0001894623, -0.001567638, -9.851793, 0, 0, 32.28598, 1, 1, 1000, 1000
 137649085, 1, 0.001208922, -0.0004021745, 0.001595766, -0.002139065, -0.0006567659, -9.850313, 0, 0, 32.28602, 1, 1, 760, 800
 137689069, 0, 0.002844971, 0.001074239, 0.001621439, 0.0005236954, -0.0006291238, -9.85185, 0, 0, 32.28767, 1, 1, 1000, 1000
 137689069, 1, 0.002797491, 0.001514458, 0.001679029, 0.0002715013, 0.0005063693, -9.852296, 0, 0, 32.28771, 1, 1, 760, 800
 137729053, 0, 0.002944668, -0.000346589, 0.001703434, 0.0001112432, -0.001303537, -9.852168, 0, 0, 32.28937, 1, 1, 1000, 1000
 137729053, 1, 0.00307805, -0.0003665148, 0.001687146, 0.0002079688, 0.0003700895, -9.854393, 0, 0, 32.28941, 1, 1, 760, 800
 137769037, 0, 0.003121303, -0.0009823377, 0.001753349, -0.0007886515, -0.0006418116, -9.853688, 0, 0, 32.29106, 1, 1, 1000, 1000
 137769037, 1, 0.003151361, -0.0007088002, 0.001720231, 0.003870636, -0.003160799, -9.852707, 0, 0, 32.2911, 1, 1, 760, 800
 137809021, 0, 0.001069672, -0.001788569, 0.00172768, 0.002005823, -0.0005840114, -9.853083, 0, 0, 32.29276, 1, 1, 1000, 1000
 137809021, 1, 0.000910425, -0.001852681, 0.001530808, 0.0009182742, -0.00142375, -9.852968, 0, 0, 32.2928, 1, 1, 760, 800
 137849005, 0, 0.002808098, 0.001065817, 0.001727253, 0.0002639194, -0.0006924321, -9.849597, 0, 0, 32.29445, 1, 1, 1000, 1000
 137849005, 1, 0.002886264, 0.001254937, 0.001742311, 0.0005916189, -0.0003344347, -9.849237, 0, 0, 32.29449, 1, 1, 760, 800
 137888989, 0, 0.005165287, 0.005059959, 0.001775639, 0.0001990798, -0.0005519861, -9.850317, 0, 0, 32.29614, 1, 1, 1000, 1000
 137888989, 1, 0.005319197, 0.0050434, 0.001750791, 0.00302402, 0.0004585107, -9.852223, 0, 0, 32.29614, 1, 1, 760, 800
 137928973, 0, 0.004543607, 0.005937911, 0.001779623, -0.0003424936, -0.0004901169, -9.848316, 0, 0, 32.29784, 1, 1, 1000, 1000
 137928973, 1, 0.004606042, 0.006017654, 0.001649688, 0.0002229308, 0.00131295, -9.848399, 0, 0, 32.29784, 1, 1, 760, 800
 137968957, 0, 0.00239057, 0.002441049, 0.001667051, 0.0006191537, -0.001459712, -9.848185, 0, 0, 32.29953, 1, 1, 1000, 1000
 137968957, 1, 0.002543125, 0.002643265, 0.001780548, -0.002709448, -4.748908E-05, -9.848129, 0, 0, 32.29953, 1, 1, 760, 800
 138008941, 0, 0.0007388862, 4.236972E-05, 0.001668549, 0.0004649272, -0.0009389009, -9.845537, 0, 0, 32.30122, 1, 1, 1000, 1000
 138008941, 1, 0.000843669, 9.392858E-05, 0.00174905, -0.0007302889, -0.001562568, -9.845556, 0, 0, 32.30122, 1, 1, 760, 800
 138048925, 0, 0.001155872, 0.000488403, 0.0017252, 0.001314741, -0.0005509882, -9.841887, 0, 0, 32.30292, 1, 1, 1000, 1000
 138048925, 1, 0.001061965, 0.0004046671, 0.00170086, 0.0004650453, -0.0008603122, -9.842302, 0, 0, 32.30292, 1, 1, 760, 800
 138088909, 0, 0.002702618, 0.001496629, 0.001646519, 0.00111358, -0.0008435803, -9.840439, 0, 0, 32.30461, 1, 1, 1000, 1000
 138088909, 1, 0.00261616, 0.001574064, 0.001715182, -0.0008335678, -0.0006970754, -9.84341, 0, 0, 32.30461, 1, 1, 760, 800
 138128893, 0, 0.0008814791, 0.0006119743, 0.00169117, 0.001251855, 0.0007409727, -9.838127, 0, 0, 32.3063, 1, 1, 1000, 1000
 138128893, 1, 0.0007548918, 0.0007141105, 0.001798937, -0.001502834, -0.001241307, -9.83956, 0, 0, 32.3063, 1, 1, 760, 800
 138168877, 0, 0.0008911917, 0.00112184, 0.001630678, -0.0004257479, -0.0002058884, -9.839319, 0, 0, 32.30799, 1, 1, 1000, 1000
 138168877, 1, 0.0008016842, 0.000968545, 0.001581459, -0.0007418735, 0.0005096621, -9.839966, 0, 0, 32.30799, 1, 1, 760, 800
 138208861, 0, -0.0003912827, -0.0002135419, 0.001666167, 0.0006858788, -0.0004976151, -9.838938, 0, 0, 32.30968, 1, 1, 1000, 1000
 138208861, 1, -0.0004747639, -0.000211441, 0.001539062, 0.001175757, -0.001107939, -9.840736, 0, 0, 32.30968, 1, 1, 760, 800
 138248845, 0, 0.002169819, 0.003192024, 0.001582273, 0.0005446008, -0.001017784, -9.839188, 0, 0, 32.31138, 1, 1, 1000, 1000
 138248845, 1, 0.002449738, 0.00333963, 0.00157144, 0.001487909, -0.001355362, -9.839165, 0, 0, 32.31138, 1, 1, 760, 800
 138288829, 0, 0.005152148, 0.005212487, 0.001629147, 0.001275683, -0.0003285623, -9.836063, 0, 0, 32.31307, 1, 1, 1000, 1000
 138288829, 1, 0.005043107, 0.005238209, 0.001706536, -0.002657166, -0.002220316, -9.835258, 0, 0, 32.31303, 1, 1, 760, 800
 138328813, 0, 0.003592599, 0.003763136, 0.001556873, 0.0007697756, -0.001638031, -9.831335, 0, 0, 32.31476, 1, 1, 1000, 1000
 138328813, 1, 0.0034257, 0.003642349, 0.001585528, 0.0005194341, 5.639181E-05, -9.833729, 0, 0, 32.31472, 1, 1, 760, 800
 138368797, 0, 0.003960886, 0.004061908, 0.001615601, 0.0008944246, -0.0002015473, -9.835067, 0, 0, 32.31645, 1, 1, 1000, 1000
 138368797, 1, 0.003744866, 0.004001466, 0.001556672, -0.0003903266, -0.002951032, -9.836198, 0, 0, 32.31641, 1, 1, 760, 800
 138408781, 0, 0.001900091, 0.002067214, 0.001518717, 0.001267839, -0.0006698954, -9.830419, 0, 0, 32.31815, 1, 1, 1000, 1000
 138408781, 1, 0.001994547, 0.001954898, 0.00154897, 0.001052033, -0.003166607, -9.828327, 0, 0, 32.3181, 1, 1, 760, 800
 138448765, 0, 0.00226012, 0.00341767, 0.00140557, 0.0006685426, -8.08068E-05, -9.827883, 0, 0, 32.31984, 1, 1, 1000, 1000
 138448765, 1, 0.002242012, 0.00358604, 0.001370001, -0.000697417, 5.339231E-06, -9.827399, 0, 0, 32.31979, 1, 1, 760, 800
 138488749, 0, 0.003315526, 0.003611059, 0.001420725, -0.0001042865, -0.000670069, -9.824633, 0, 0, 32.32153, 1, 1, 1000, 1000
 138488749, 1, 0.003230656, 0.003558397, 0.001433133, -0.0009554107, 0.002080926, -9.823488, 0, 0, 32.32148, 1, 1, 760, 800
 138529566, 0, 0.0001052677, 0.0008345498, 0.001445928, 0.0002294551, -0.001385312, -9.834358, 0, 0, 32.32326, 1, 1, 1000, 1000
 138529566, 1, 0.0001701776, 0.0007934354, 0.001495413, 0.001798594, 0.0003296533, -9.836244, 0, 0, 32.32326, 1, 1, 760, 800
 138569550, 0, 0.0006437012, 0.0007487371, 0.001575782, 1.677237E-05, -0.0001550803, -9.828279, 0, 0, 32.32495, 1, 1, 1000, 1000
 138569550, 1, 0.0008037846, 0.0007230332, 0.001520237, -0.0002182561, -0.0002838845, -9.825198, 0, 0, 32.32495, 1, 1, 760, 800
 138609534, 0, 0.0008431362, 0.0009662595, 0.001634814, 0.0003119037, -0.000516765, -9.822952, 0, 0, 32.32664, 1, 1, 1000, 1000
 138609534, 1, 0.0007734157, 0.0008075245, 0.001503725, -0.001446217, -0.0003321493, -9.8225, 0, 0, 32.32664, 1, 1, 760, 800
 138649518, 0, 0.00185927, 0.0009568525, 0.001703783, 0.000549595, -0.0001532751, -9.820292, 0, 0, 32.32833, 1, 1, 1000, 1000
 138649518, 1, 0.001874009, 0.0009693102, 0.001753625, -0.0001564424, 0.001671938, -9.821157, 0, 0, 32.32833, 1, 1, 760, 800
 138689502, 0, 0.00346833, 0.001266127, 0.001687407, 0.0004072543, -0.0007771508, -9.82319, 0, 0, 32.33002, 1, 1, 1000, 1000
 138689502, 1, 0.003535778, 0.00131286, 0.001615116, 0.003346664, 0.0007513844, -9.823417, 0, 0, 32.33002, 1, 1, 760, 800
 138729486, 0, 0.003787659, 0.003015401, 0.001734757, -0.001113584, -0.0007624325, -9.821705, 0, 0, 32.33171, 1, 1, 1000, 1000
 138729486, 1, 0.003898762, 0.003082728, 0.00184921, -0.002332891, -0.000770996, -9.820274, 0, 0, 32.33171, 1, 1, 760, 800
 138769470, 0, 0.003709067, 0.002943858, 0.001711819, 0.0002601033, 0.0005060644, -9.820278, 0, 0, 32.3334, 1, 1, 1000, 1000
 138769470, 1, 0.003819466, 0.0029092, 0.001593042, 0.0004463699, 0.001725644, -9.81992, 0, 0, 32.3334, 1, 1, 760, 800
 138809454, 0, -0.000351175, 0.0004998296, 0.001544323, 0.0003129981, -0.0008028127, -9.82361, 0, 0, 32.33508, 1, 1, 1000, 1000
 138809454, 1, -0.0005339109, 0.0005468818, 0.001709232, 0.001022342, -0.0001280215, -9.823606, 0, 0, 32.33508, 1, 1, 760, 800
