Time,Status,IMU_AccX,IMU_AccY,IMU_AccZ,IMU_GyrX,IMU_GyrY,IMU_GyrZ,VIBE_VibeX,VIBE_VibeY,VIBE_VibeZ
205289518,0.0,-3.1451529411764705,-0.0447571458823529,-10.057832352941176,0.0730897605882353,0.2916264941176471,0.0078633929411764,5.96047e-07,5.96047e-07,5.96047e-07
205289518,0.0,-3.1433999117647056,-0.0447323188235294,-10.059533529411764,0.0733493258823529,0.2913782911764706,0.0079024104117647,5.96047e-07,5.96047e-07,5.96047e-07
205289518,0.0,-3.141646882352941,-0.0447074917647058,-10.061234705882352,0.0736088911764705,0.2911300882352941,0.0079414278823529,5.96047e-07,5.96047e-07,5.96047e-07
205289518,0.0,-3.141062539215686,-0.0446992160784313,-10.061801764705882,0.0736954129411764,0.2910473539215686,0.0079544337058822,5.96047e-07,5.96047e-07,5.96047e-07
205289518,0.0,-3.140478196078431,-0.0446909403921568,-10.062368823529413,0.0737819347058823,0.2909646196078431,0.0079674395294117,0.04897835,0.005815,0.04646805
205289518,0.0,-3.139893852941176,-0.0446826647058823,-10.06293588235294,0.0738684564705882,0.2908818852941177,0.0079804453529411,5.96047e-07,5.96047e-07,5.96047e-07
205289518,0.0,-3.136387794117647,-0.0446330105882352,-10.066338235294118,0.0743875870588235,0.2903854794117647,0.0080584802941176,0.0244894730235,0.0029077980235,0.0232343230234999
205289518,0.0,-3.1284991617647058,-0.0445212888235293,-10.073993529411766,0.0755556308823529,0.2892685661764705,0.0082340589117646,0.03700234526175,0.00434251263675,0.0351768577617499
205289518,0.0,-3.1206105294117648,-0.0444095670588235,-10.081648823529411,0.0767236747058823,0.2881516529411764,0.0084096375294117,0.0495152175,0.00577722725,0.0471193924999999
205289518,0.0,-3.1065862941176468,-0.0442109505882352,-10.095258235294118,0.0788001970588235,0.2861660294117647,0.0087217772941176,0.0500520849999999,0.0057394544999999,0.0477707349999999
205289518,0.0,-3.105534476470588,-0.044196054352941,-10.096278941176472,0.0789559362352941,0.2860171076470588,0.0087451877764705,0.0500923500624999,0.0057366215437499,0.0478195856874999
205289518,0.0,-3.104482658823529,-0.0441811581176469,-10.097299647058824,0.0791116754117646,0.2858681858823529,0.0087685982588234,0.0501326151249999,0.0057337885874999,0.0478684363749999
205289518,0.0,-3.10343084117647,-0.0441662618823528,-10.098320352941176,0.0792674145882352,0.2857192641176471,0.0087920087411764,0.0501728801874999,0.0057309556312499,0.0479172870624999
205289518,0.0,-3.102379023529412,-0.0441513656470587,-10.09934105882353,0.0794231537647058,0.2855703423529412,0.0088154192235293,0.0502131452499999,0.0057281226749999,0.0479661377499999
205289518,0.0,-3.1013272058823524,-0.0441364694117646,-10.100361764705884,0.0795788929411764,0.2854214205882353,0.0088388297058823,0.0502534103124999,0.0057252897187499,0.0480149884374999
205289518,0.0,-3.100275388235294,-0.0441215731764705,-10.101382470588236,0.079734632117647,0.2852724988235294,0.0088622401882352,0.0502936753749999,0.0057224567624999,0.0480638391249999
205289518,0.0,-3.099223570588235,-0.0441066769411764,-10.102403176470588,0.0798903712941176,0.2851235770588235,0.0088856506705881,0.0503339404374999,0.0057196238062499,0.0481126898124999
205289518,0.0,-3.0981717529411763,-0.0440917807058823,-10.103423882352942,0.0800461104705882,0.2849746552941176,0.0089090611529411,0.0503742054999999,0.0057167908499999,0.0481615404999999
205289518,0.0,-3.097119935294117,-0.0440768844705882,-10.104444588235296,0.0802018496470588,0.2848257335294117,0.008932471635294,0.0504144705624999,0.0057139578937499,0.0482103911874999
205289518,0.0,-3.0960681176470586,-0.0440619882352941,-10.105465294117648,0.0803575888235294,0.2846768117647059,0.008955882117647,0.050454735625,0.0057111249375,0.048259241875
205289518,0.0,-3.1048332647058823,-0.0441861235294117,-10.096959411764706,0.0790597623529411,0.2859178264705882,0.0087607947647058,0.0501191934375,0.00573473290625,0.0478521528125
205289518,0.0,-3.1030802352941174,-0.0441612964705882,-10.098660588235294,0.0793193276470588,0.2856696235294118,0.0087998122352941,0.050186301875,0.0057300113125,0.047933570625
205289518,0.0,-3.101327205882353,-0.0441364694117647,-10.100361764705882,0.0795788929411764,0.2854214205882353,0.0088388297058823,0.0502534103125,0.00572528971875,0.0480149884374999
205289518,0.0,-3.099574176470588,-0.0441116423529411,-10.10206294117647,0.0798384582352941,0.2851732176470588,0.0088778471764705,0.05032051875,0.005720568125,0.04809640625
205289518,0.0,-3.0978211470588235,-0.0440868152941176,-10.10376411764706,0.0800980235294117,0.2849250147058823,0.0089168646470588,0.0503876271875,0.00571584653125,0.0481778240625
205289518,0.0,-3.094315088235294,-0.0440371611764705,-10.107166470588236,0.080617154117647,0.2844286088235294,0.0089948995882352,0.0505218440625,0.00570640334375,0.0483406596874999
205319506,0.0,-3.0908090294117647,-0.0439875070588235,-10.110568823529412,0.0811362847058823,0.2839322029411764,0.0090729345294117,0.0506560609375,0.00569696015625,0.0485034953125
205319506,0.0,-1.0454035147058822,0.4780042964705883,-4.555283411764706,0.0813935223529411,0.2836314014705882,0.0090198062647058,0.05068961515625,0.005694599359375,0.04854420421875
205329502,0.0,1.000002,0.9999961,1.000002,0.08165076,0.2833306,0.008966678,0.050723169375,0.0056922385625,0.048584913125
205329502,0.0,-3.089056,-0.04396268,-10.11227,0.08139585,0.283684,0.009111952,0.05075672359375,0.0056898777656249,0.04862562203125
205329502,0.0,1.000002,0.9999961,1.000002,0.08165076,0.2833306,0.008966678,0.0507902778125,0.00568751696875,0.0486663309375
205329502,0.0,-3.089056,-0.04396268,-10.11227,0.08139585,0.283684,0.009111952,0.050723169375,0.0056922385625,0.048584913125
205369486,0.0,1.000002,0.9999961,1.000002,0.08919327,0.2731866,0.01032968,0.0509244946875,0.00567807378125,0.0488291665625
205369486,0.0,-3.022334,-0.04362409,-10.17367,0.08920293,0.273153,0.0105223,0.05085738625,0.005682795375,0.04874774875
205369486,0.0,-3.022334,-0.04362409,-10.17367,0.08920293,0.273153,0.0105223,0.0509021252083333,0.0056796476458333,0.0488020272916666
205369486,0.0,1.000002,0.9999961,1.000002,0.08919327,0.2731866,0.01032968,0.0509468641666666,0.0056764999166666,0.0488563058333332
205371985,0.0,0.8930345405405407,0.9717440983783784,0.6963392432432434,0.0893377235135135,0.272920081081081,0.0103775594594594,0.050991603125,0.0056733521875,0.0489105843749999
205371985,0.0,0.0907785945945947,0.7598540862162162,-1.581131432432432,0.0904211248648648,0.2709211891891891,0.0107366554054053,0.039599609642,0.0043992673456637,0.0379929209566551
205389478,0.0,-0.7114773513513513,0.5479640740540541,-3.858602108108108,0.0915045262162162,0.2689222972972973,0.0110957513513513,0.028207616159,0.0031251825038275,0.0270752575383103
205389478,0.0,-1.4067658378378378,0.3643260635135135,-5.832410027027027,0.092443474054054,0.2671899243243243,0.0114069678378378,0.0167485142385,0.0018558192557413,0.0160761763074654
205389478,0.0,-2.1020543243243246,0.180688052972973,-7.806217945945946,0.0933824218918918,0.2654575513513513,0.0117181843243243,0.005289412318,0.0005864560076551,0.0050770950766206
205389478,0.0,-2.209021783783784,0.1524360513513514,-8.109880702702702,0.0935268754054054,0.2651910324324324,0.0117660637837837,0.0035264735609999,0.0003911693541034,0.0033849287334137
205389478,0.0,-2.3159892432432434,0.1241840497297298,-8.41354345945946,0.0936713289189189,0.2649245135135135,0.0118139432432432,0.0017635348039999,0.0001958827005517,0.0016927623902068
205389478,0.0,-2.387300882882883,0.105349381981982,-8.615985297297296,0.0937676312612612,0.2647468342342342,0.0118458628828828,0.0011758885516666,0.0001307871493678,0.0011287069424712
205389478,0.0,-2.4586125225225226,0.0865147142342342,-8.818427135135135,0.0938639336036035,0.2645691549549549,0.0118777825225224,0.0005882422993333,6.56915981839e-05,0.0005646514947356
205389478,0.0,-2.529924162162162,0.0676800464864865,-9.020868972972972,0.0939602359459459,0.2643914756756756,0.0119097021621621,5.96047e-07,5.96047e-07,5.96047e-07
205389478,0.0,-2.636891621621621,0.0394280448648649,-9.32453172972973,0.0941046894594594,0.2641249567567567,0.0119575816216216,5.96047e-07,5.96047e-07,5.96047e-07
205389478,0.0,-2.743859081081081,0.0111760432432432,-9.628194486486484,0.0942491429729729,0.2638584378378378,0.012005461081081,5.96047e-07,5.96047e-07,5.96047e-07
205389478,0.0,-1.995086864864865,0.2089400545945946,-7.502555189189188,0.0932379683783783,0.2657240702702703,0.0116703048648648,0.0070523510749999,0.0007817426612068,0.0067692614198275
205389478,0.0,-0.8184448108108107,0.5197120724324324,-4.162264864864865,0.0916489797297297,0.2686557783783784,0.0111436308108108,0.026444677402,0.0029298958502758,0.0253830911951034
205389478,0.0,-1.8346356756756752,0.2513180570270271,-7.047061054054054,0.093021288108108,0.2661238486486487,0.0115984856756756,0.0132226367245,0.0014652459486379,0.0126918436210517
205389478,0.0,-2.85082654054054,-0.0170759583783782,-9.931857243243243,0.0943935964864864,0.2635919189189189,0.0120533405405405,5.96047e-07,5.96047e-07,5.96047e-07
205389478,0.0,-2.7082032612612608,0.0205933771171172,-9.526973567567568,0.0942009918018017,0.2639472774774775,0.0119895012612612,5.96047e-07,5.96047e-07,5.96047e-07
205389478,0.0,-2.5655799819819816,0.0582627126126126,-9.122089891891893,0.094008387117117,0.264302636036036,0.0119256619819819,5.96047e-07,5.96047e-07,5.96047e-07
205389478,0.0,-2.4229567027027024,0.0959320481081081,-8.717206216216216,0.0938157824324324,0.2646579945945946,0.0118618227027027,5.96047e-07,5.96047e-07,5.96047e-07
205389478,0.0,-1.888119405405405,0.2371920562162163,-7.198892432432432,0.0930935148648648,0.2659905891891891,0.0116224254054054,0.008815289832,0.0009770293147586,0.0084614277630344
205389478,0.0,-0.2836075135135134,0.6609720805405406,-2.643951081081081,0.0909267121621621,0.2699883729729729,0.0109042335135135,0.0352593711869999,0.0039063291180344,0.0338439229111379
205389478,0.0,-1.6741844864864863,0.2936960594594595,-6.591566918918918,0.0928046078378378,0.266523627027027,0.0115266664864864,0.012341167346,0.001367602621862,0.0118457604494482
205389478,0.0,-1.1393471891891889,0.4349560675675676,-5.073253135135134,0.0920823402702702,0.2678562216216216,0.0112872691891891,0.021155861131,0.0023440358896206,0.0203065921654827
205389478,0.0,0.7860670810810811,0.9434920967567568,0.3926764864864865,0.089482177027027,0.2726535621621622,0.0104254389189189,0.0510587115625,0.00566863059375,0.0489920021875
205389478,0.0,0.6790996216216216,0.9152400951351352,0.0890137297297297,0.0896266305405405,0.2723870432432432,0.0104733183783783,0.05112582,0.005663909,0.04907342
205389478,0.0,0.5721321621621622,0.8869880935135136,-0.2146490270270269,0.089771084054054,0.2721205243243243,0.0105211978378378,0.049362881243,0.0054686223464482,0.0473812536567931
205389478,0.0,0.4651647027027028,0.8587360918918919,-0.5183117837837836,0.0899155375675675,0.2718540054054054,0.0105690772972972,0.047599942486,0.0052733356928965,0.0456890873135862
205389478,0.0,0.3581972432432433,0.8304840902702704,-0.8219745405405405,0.090059991081081,0.2715874864864865,0.0106169567567567,0.045837003729,0.0050780490393448,0.0439969209703793
205389478,0.0,0.2512297837837838,0.8022320886486487,-1.125637297297297,0.0902044445945946,0.2713209675675676,0.0106648362162162,0.044074064972,0.0048827623857931,0.0423047546271724
205389478,0.0,0.1442623243243244,0.773980087027027,-1.429300054054054,0.0903488981081081,0.2710544486486486,0.0107127156756756,0.042311126215,0.0046874757322413,0.0406125882839655
205389478,0.0,-1.7811519459459455,0.2654440578378378,-6.895229675675675,0.0929490613513513,0.2662571081081081,0.0115745459459459,0.0105782285889999,0.0011723159683103,0.0101535941062413
205389478,0.0,0.0372948648648649,0.7457280854054055,-1.7329628108108108,0.0904933516216216,0.2707879297297297,0.0107605951351351,0.040548187458,0.0044921890786896,0.0389204219407586
205389478,0.0,-0.176640054054054,0.6892240821621622,-2.340288324324324,0.0907822586486486,0.2702548918918919,0.010856354054054,0.037022309944,0.0041016157715862,0.0355360892543448
205389478,0.0,-0.3905749729729728,0.6327200789189189,-2.947613837837838,0.0910711656756756,0.2697218540540541,0.0109521129729729,0.03349643243,0.0037110424644827,0.032151756567931
205389478,0.0,-0.4975424324324324,0.6044680772972973,-3.251276594594594,0.0912156191891891,0.2694553351351351,0.0109999924324324,0.031733493673,0.003515755810931,0.0304595902247241
205389478,0.0,-0.6045098918918919,0.5762160756756758,-3.5549393513513508,0.0913600727027027,0.2691888162162162,0.0110478718918918,0.029970554916,0.0033204691573793,0.0287674238815172
205389478,0.0,-1.2463146486486487,0.406704065945946,-5.376915891891891,0.0922267937837837,0.2675897027027027,0.0113351486486486,0.0193929223739999,0.0021487492360689,0.0186144258222758
205389478,0.0,-1.353282108108108,0.3784520643243244,-5.680578648648648,0.0923712472972973,0.2673231837837838,0.0113830281081081,0.017629983617,0.0019534625825172,0.0169222594790689
205389478,0.0,-1.4602495675675675,0.3502000627027027,-5.984241405405405,0.0925157008108108,0.2670566648648648,0.0114309075675675,0.01586704486,0.0017581759289655,0.015230093135862
205389478,0.0,-1.567217027027027,0.3219480610810811,-6.287904162162162,0.0926601543243243,0.2667901459459459,0.011478787027027,0.014104106103,0.0015628892754137,0.0135379267926551
205389478,0.0,-0.0696725945945944,0.7174760837837839,-2.036625567567567,0.0906378051351351,0.2705214108108108,0.0108084745945945,0.038785248701,0.0042969024251379,0.0372282555975517
205389478,0.0,-0.551026162162162,0.5903420764864866,-3.4031079729729723,0.0912878459459459,0.2693220756756757,0.0110239321621621,0.0308520242945,0.0034181124841551,0.0296135070531206
205389478,0.0,-1.0323797297297297,0.4632080691891892,-4.7695903783783775,0.0919378867567567,0.2681227405405405,0.0112393897297297,0.022918799888,0.0025393225431724,0.0219987585086896
205389478,0.0,-1.028417971971972,0.4642544396196196,-4.758343609609609,0.0919325366266265,0.2681326116116116,0.0112376164164163,0.0260529132337777,0.0028864988161532,0.0250070542299463
205389478,0.0,-1.0244562142142142,0.4653008100500501,-4.74709684084084,0.0919271864964964,0.2681424826826826,0.011235843103103,0.0291870265795555,0.003233675089134,0.028015349951203
205389478,0.0,-1.0204944564564564,0.4663471804804805,-4.735850072072071,0.0919218363663663,0.2681523537537537,0.0112340697897897,0.0323211399253333,0.0035808513621149,0.0310236456724597
205389478,0.0,-1.0165326986986989,0.4673935509109109,-4.724603303303303,0.0919164862362361,0.2681622248248248,0.0112322964764764,0.0354552532711111,0.0039280276350957,0.0340319413937164
205389478,0.0,-1.012570940940941,0.4684399213413414,-4.713356534534534,0.091911136106106,0.2681720958958958,0.0112305231631631,0.0385893666168888,0.0042752039080766,0.0370402371149731
205389478,0.0,-1.0086091831831832,0.4694862917717718,-4.702109765765765,0.0919057859759759,0.2681819669669669,0.0112287498498498,0.0417234799626666,0.0046223801810574,0.0400485328362298
205389478,0.0,-1.0046474254254254,0.4705326622022022,-4.690862996996996,0.0919004358458457,0.268191838038038,0.0112269765365364,0.0448575933084444,0.0049695564540383,0.0430568285574865
205389478,0.0,-1.0006856676676676,0.4715790326326327,-4.679616228228228,0.0918950857157156,0.268201709109109,0.0112252032232231,0.0479917066542222,0.0053167327270191,0.0460651242787432
205389478,0.0,-0.9967239099099098,0.4726254030630631,-4.668369459459459,0.0918897355855855,0.2682115801801801,0.0112234299099098,0.05112582,0.005663909,0.04907342
205389478,0.0,-0.992762152152152,0.4736717734934935,-4.65712269069069,0.0918843854554554,0.2682214512512512,0.0112216565965965,0.046478072367909,0.005149062367909,0.0446122541860909
205389478,0.0,-0.9888003943943944,0.474718143923924,-4.645875921921921,0.0918790353253252,0.2682313223223223,0.0112198832832832,0.0418303247358181,0.0046342157358181,0.0401510883721818
205389478,0.0,-0.9848386366366364,0.4757645143543544,-4.634629153153153,0.0918736851951951,0.2682411933933933,0.0112181099699699,0.0371825771037272,0.0041193691037272,0.0356899225582727
205389478,0.0,-0.9808768788788788,0.4768108847847848,-4.623382384384384,0.091868335065065,0.2682510644644644,0.0112163366566566,0.0325348294716363,0.0036045224716363,0.0312287567443636
205389478,0.0,-0.9769151211211208,0.4778572552152152,-4.612135615615615,0.0918629849349348,0.2682609355355355,0.0112145633433432,0.0278870818395454,0.0030896758395454,0.0267675909304545
205389478,0.0,-0.9729533633633632,0.4789036256456457,-4.600888846846846,0.0918576348048047,0.2682708066066065,0.0112127900300299,0.0232393342074545,0.0025748292074545,0.0223064251165454
205389478,0.0,-0.9689916056056054,0.4799499960760761,-4.589642078078078,0.0918522846746746,0.2682806776776776,0.0112110167167166,0.0185915865753636,0.0020599825753636,0.0178452593026363
205389478,0.0,-0.9650298478478476,0.4809963665065065,-4.578395309309309,0.0918469345445445,0.2682905487487487,0.0112092434034033,0.0139438389432727,0.0015451359432727,0.0133840934887272
205389478,0.0,-0.96106809009009,0.482042736936937,-4.56714854054054,0.0918415844144143,0.2683004198198198,0.01120747009009,0.0092960913111818,0.0010302893111818,0.0089229276748181
205389478,0.0,-0.957106332332332,0.4830891073673674,-4.555901771771771,0.0918362342842842,0.2683102908908908,0.0112056967767767,0.0046483436790909,0.0005154426790909,0.004461761860909
205389478,0.0,-0.9531445745745744,0.4841354777977978,-4.544655003003003,0.0918308841541541,0.2683201619619619,0.0112039234634634,5.96047e-07,5.96047e-07,5.96047e-07
205389478,0.0,-0.9491828168168166,0.4851818482282283,-4.533408234234234,0.0918255340240239,0.268330033033033,0.01120215015015,0.003526473561,0.0003911693541034,0.0033849287334137
205389478,0.0,-0.9452210590590588,0.4862282186586587,-4.522161465465465,0.0918201838938938,0.2683399041041041,0.0112003768368367,0.0070523510749999,0.0007817426612068,0.0067692614198275
205389478,0.0,-0.9412593013013012,0.4872745890890891,-4.510914696696696,0.0918148337637637,0.2683497751751751,0.0111986035235234,0.010578228589,0.0011723159683103,0.0101535941062413
205389478,0.0,-0.9372975435435432,0.4883209595195196,-4.499667927927928,0.0918094836336335,0.2683596462462462,0.0111968302102101,0.0141041061029999,0.0015628892754137,0.0135379267926551
205389478,0.0,-0.9333357857857856,0.48936732994995,-4.488421159159159,0.0918041335035034,0.2683695173173173,0.0111950568968968,0.0176299836169999,0.0019534625825172,0.0169222594790689
205389478,0.0,-0.9293740280280276,0.4904137003803804,-4.47717439039039,0.0917987833733733,0.2683793883883883,0.0111932835835835,0.021155861131,0.0023440358896206,0.0203065921654827
205389478,0.0,-0.92541227027027,0.4914600708108109,-4.4659276216216215,0.0917934332432432,0.2683892594594594,0.0111915102702702,0.024681738645,0.0027346091967241,0.0236909248518965
205389478,0.0,-0.2836075135135132,0.6609720805405406,-2.643951081081081,0.0927693688288288,0.2666613729729729,0.0115550001801801,0.0164546911123333,0.0018232714801493,0.0157941485835976
205389478,0.0,0.3581972432432435,0.8304840902702704,-0.8219745405405403,0.0937453044144144,0.2649334864864864,0.01191849009009,0.0082276435796666,0.0009119337635747,0.0078973723152988
205409470,0.0,1.000002,0.9999961,1.000002,0.09472124,0.2632056,0.01228198,5.96047e-07,5.96047e-07,5.96047e-07
205409470,0.0,1.000002,0.9999961,1.000002,0.09472124,0.2632056,0.01228198,5.96047e-07,5.96047e-07,5.96047e-07
205409470,0.0,-2.957794,-0.04532796,-10.23552,0.09453805,0.2633254,0.01210122,5.96047e-07,5.96047e-07,5.96047e-07
205409470,0.0,-2.957794,-0.04532796,-10.23552,0.09453805,0.2633254,0.01210122,5.96047e-07,5.96047e-07,5.96047e-07
205449454,0.0,1.000002,0.9999961,1.000002,0.0957163,0.2539403,0.01458116,5.96047e-07,5.96047e-07,5.96047e-07
205449454,0.0,1.000002,0.9999961,1.000002,0.0957163,0.2539403,0.01458116,5.96047e-07,5.96047e-07,5.96047e-07
205449454,0.0,-2.889489,-0.04783122,-10.30037,0.09556717,0.2539825,0.01462686,5.96047e-07,5.96047e-07,5.96047e-07
205449454,0.0,-2.889489,-0.04783122,-10.30037,0.09556717,0.2539825,0.01462686,5.96047e-07,5.96047e-07,5.96047e-07
205489438,0.0,-1.592992,0.3014445533333333,-6.533579333333332,0.0951788933333333,0.2502384666666666,0.01554771,0.0087747533725,0.0009715180391666,0.0081860533725
205489438,0.0,-0.2964949999999997,0.6507203266666668,-2.766788666666666,0.0947906166666666,0.2464944333333333,0.01646856,0.017548910698,0.0019424400313333,0.016371510698
205489438,0.0,1.000002,0.9999961,1.000002,0.09440234,0.2427504,0.01738941,0.0263230680235,0.0029133620235,0.0245569680235
205489438,0.0,0.7988173157894738,0.9447956578947369,0.4022987368421052,0.0943960747368421,0.2427470263157894,0.0173821631578947,0.035097225349,0.0038842840156666,0.032742425349
205489438,0.0,0.5976326315789474,0.8895952157894738,-0.1954045263157895,0.0943898094736842,0.2427436526315789,0.0173749163157894,0.0438713826745,0.0048552060078333,0.0409278826745
205489438,0.0,0.396447947368421,0.8343947736842106,-0.7931077894736844,0.0943835442105263,0.2427402789473684,0.0173676694736842,0.05264554,0.005826128,0.04911334
205489438,0.0,0.1952632631578947,0.7791943315789475,-1.3908110526315791,0.0943772789473684,0.2427369052631579,0.0173604226315789,5.96047e-07,5.96047e-07,5.96047e-07
205489438,0.0,-0.0059214210526314,0.7239938894736843,-1.9885143157894736,0.0943710136842105,0.2427335315789473,0.0173531757894736,5.96047e-07,5.96047e-07,5.96047e-07
205489438,0.0,-0.2071061052631579,0.6687934473684212,-2.5862175789473687,0.0943647484210526,0.2427301578947368,0.0173459289473684,5.96047e-07,5.96047e-07,5.96047e-07
205489438,0.0,-0.4082907894736842,0.613593005263158,-3.1839208421052634,0.0943584831578947,0.2427267842105263,0.0173386821052631,5.96047e-07,5.96047e-07,5.96047e-07
205489438,0.0,-0.6094754736842105,0.5583925631578948,-3.781624105263158,0.0943522178947368,0.2427234105263158,0.0173314352631578,5.96047e-07,5.96047e-07,5.96047e-07
205489438,0.0,-0.8106601578947368,0.5031921210526317,-4.379327368421053,0.0943459526315789,0.2427200368421052,0.0173241884210526,5.96047e-07,5.96047e-07,5.96047e-07
205489438,0.0,-1.011844842105263,0.4479916789473684,-4.977030631578947,0.094339687368421,0.2427166631578947,0.0173169415789473,5.96047e-07,5.96047e-07,5.96047e-07
205489438,0.0,-1.2130295263157895,0.3927912368421054,-5.574733894736842,0.0943334221052631,0.2427132894736842,0.0173096947368421,5.96047e-07,5.96047e-07,5.96047e-07
205489438,0.0,-1.414214210526316,0.3375907947368421,-6.172437157894738,0.0943271568421052,0.2427099157894736,0.0173024478947368,5.96047e-07,5.96047e-07,5.96047e-07
205489438,0.0,-1.615398894736842,0.2823903526315791,-6.770140421052632,0.0943208915789473,0.2427065421052631,0.0172952010526315,5.96047e-07,5.96047e-07,5.96047e-07
205489438,0.0,-1.8165835789473683,0.2271899105263158,-7.367843684210527,0.0943146263157894,0.2427031684210526,0.0172879542105263,5.96047e-07,5.96047e-07,5.96047e-07
205489438,0.0,-2.017768263157895,0.1719894684210527,-7.965546947368422,0.0943083610526315,0.2426997947368421,0.017280707368421,5.96047e-07,5.96047e-07,5.96047e-07
205489438,0.0,-2.218952947368421,0.1167890263157895,-8.563250210526316,0.0943020957894736,0.2426964210526315,0.0172734605263157,5.96047e-07,5.96047e-07,5.96047e-07
205489438,0.0,-2.420137631578948,0.0615885842105263,-9.160953473684213,0.0942958305263158,0.242693047368421,0.0172662136842105,5.96047e-07,5.96047e-07,5.96047e-07
205489438,0.0,-2.621322315789474,0.0063881421052632,-9.758656736842106,0.0942895652631578,0.2426896736842105,0.0172589668421052,5.96047e-07,5.96047e-07,5.96047e-07
205489438,0.0,-2.822507,-0.0488123,-10.35636,0.0942833,0.2426863,0.01725172,5.96047e-07,5.96047e-07,5.96047e-07
205489438,0.0,-2.7955384019607843,-0.0383759698039215,-10.23624037254902,0.0944858584313725,0.244458881372549,0.0168413271568627,5.96047e-07,5.96047e-07,5.96047e-07
205489438,0.0,-2.7685698039215687,-0.0279396396078431,-10.11612074509804,0.0946884168627451,0.246231462745098,0.0164309343137254,5.96047e-07,5.96047e-07,5.96047e-07
205489438,0.0,-2.741601205882353,-0.0175033094117647,-9.996001117647058,0.0948909752941176,0.248004044117647,0.0160205414705882,5.96047e-07,5.96047e-07,5.96047e-07
205489438,0.0,-2.714632607843137,-0.0070669792156863,-9.875881490196075,0.0950935337254902,0.249776625490196,0.0156101486274509,5.96047e-07,5.96047e-07,5.96047e-07
205489438,0.0,-2.687664009803921,0.003369350980392,-9.755761862745096,0.0952960921568627,0.251549206862745,0.0151997557843136,5.96047e-07,5.96047e-07,5.96047e-07
205489438,0.0,-2.660695411764706,0.0138056811764705,-9.635642235294116,0.0954986505882353,0.2533217882352941,0.0147893629411764,5.96047e-07,5.96047e-07,5.96047e-07
205489438,0.0,-2.431901823529412,0.0754425823529411,-8.970914470588234,0.0954301311764705,0.2526610764705882,0.0149518658823529,0.002194135378375,0.0002433265450416,0.002046960378375
205489438,0.0,-2.203108235294118,0.1370794835294118,-8.306186705882352,0.0953616117647059,0.2520003647058823,0.0151143688235294,0.0043876747097499,0.0004860570430833,0.00409332470975
205489438,0.0,-1.9743146470588235,0.1987163847058823,-7.64145894117647,0.0952930923529411,0.2513396529411765,0.0152768717647058,0.0065812140411249,0.000728787541125,0.0061396890411249
205489438,0.0,-1.7455210588235297,0.2603532858823529,-6.976731176470588,0.0952245729411764,0.2506789411764706,0.0154393747058823,0.0087747533725,0.0009715180391666,0.0081860533725
205489438,0.0,-1.5167274705882354,0.3219901870588236,-6.312003411764705,0.0951560535294117,0.2500182294117647,0.0156018776470588,0.010968292703875,0.0012142485372083,0.010232417703875
205489438,0.0,-1.2879338823529412,0.3836270882352942,-5.647275647058823,0.095087534117647,0.2493575176470588,0.0157643805882352,0.01316183203525,0.00145697903525,0.01227878203525
205489438,0.0,-1.059140294117647,0.4452639894117647,-4.98254788235294,0.0950190147058823,0.2486968058823529,0.0159268835294117,0.0153553713666249,0.0016997095332916,0.014325146366625
205489438,0.0,-2.185422166666666,0.1259891,-8.463633,0.0942815316666666,0.2403968,0.0178426766666666,0.0438713826745,0.0048552060078333,0.0409278826745
205489438,0.0,-0.830346705882353,0.5069008905882354,-4.317820117647058,0.0949504952941176,0.248036094117647,0.0160893864705882,0.017548910698,0.0019424400313333,0.016371510698
205489438,0.0,-0.3727595294117645,0.6301746929411766,-2.988364588235293,0.0948134564705882,0.2467146705882353,0.0164143923529411,0.02193598936075,0.0024279010274166,0.02046423936075
205489438,0.0,-0.1439659411764706,0.6918115941176473,-2.3236368235294105,0.0947449370588235,0.2460539588235294,0.0165768952941176,0.024129528692125,0.0026706315254583,0.022510603692125
205489438,0.0,0.0848276470588236,0.7534484952941178,-1.658909058823529,0.0946764176470588,0.2453932470588235,0.0167393982352941,0.0263230680235,0.0029133620235,0.0245569680235
205489438,0.0,0.3136212352941179,0.8150853964705884,-0.9941812941176468,0.0946078982352941,0.2447325352941176,0.0169019011764705,0.0285166073548749,0.0031560925215416,0.026603332354875
205489438,0.0,0.5424148235294117,0.876722297647059,-0.3294535294117633,0.0945393788235294,0.2440718235294117,0.017064404117647,0.03071014668625,0.0033988230195833,0.02864969668625
205489438,0.0,-0.927684477124183,0.4722221321568628,-4.711997764705882,0.0944107499673202,0.2426158950980391,0.017355047614379,0.0361939950146875,0.0040056492646874,0.0337656075146875
205489438,0.0,-2.3977837777777777,0.0677219666666666,-9.094542,0.0942821211111111,0.2411599666666666,0.0176456911111111,0.041677843343125,0.0046124755097916,0.038881518343125
205489438,0.0,-2.610145388888889,0.0094548333333333,-9.725451,0.0942827105555555,0.2419231333333333,0.0174487055555555,0.0394843040117499,0.00436974501175,0.03683515401175
205489438,0.0,1.000002,0.9999961,1.000002,0.09440234,0.2427504,0.01738941,0.035097225349,0.0038842840156666,0.032742425349
205489438,0.0,-0.6015531176470588,0.568537791764706,-3.653092352941176,0.0948819758823529,0.2473753823529411,0.0162518894117647,0.0197424500293749,0.002185170529375,0.018417875029375
205489438,0.0,-1.2873068366013072,0.3763970125490196,-5.742908176470588,0.0945814590522875,0.2435045078431372,0.0171457758169934,0.0329036860176249,0.003641553517625,0.030696061017625
205489438,0.0,-1.973060555555556,0.1842562333333333,-7.832724000000001,0.0942809422222222,0.2396336333333333,0.0180396622222222,0.0460649220058749,0.005097936505875,0.042974247005875
205489438,0.0,-1.548337333333333,0.3007904999999999,-6.570906,0.0942797633333333,0.2381073,0.0184336333333333,0.050452000668625,0.0055833975019583,0.047066975668625
205489438,0.0,0.771208411764706,0.9383591988235296,0.3352742352941185,0.0944708594117647,0.2434111117647059,0.0172269070588235,0.032903686017625,0.003641553517625,0.030696061017625
205489438,0.0,0.7739470746187366,0.9389208267973858,0.3409106960784323,0.0944379294172113,0.241128004248366,0.0177891682897603,0.0307101466862499,0.0033988230195833,0.02864969668625
205489438,0.0,0.776685737472767,0.939482454771242,0.346547156862746,0.0944049994226579,0.2388448967320261,0.0183514295206971,0.0285166073548749,0.0031560925215416,0.0266033323548749
205489438,0.0,0.7794244003267976,0.940044082745098,0.3521836176470598,0.0943720694281045,0.2365617892156862,0.0189136907516339,0.0263230680234999,0.0029133620234999,0.0245569680235
205489438,0.0,0.7821630631808282,0.9406057107189544,0.3578200784313736,0.0943391394335511,0.2342786816993463,0.0194759519825707,0.0241295286921249,0.0026706315254582,0.022510603692125
205489438,0.0,0.7849017260348586,0.9411673386928104,0.3634565392156874,0.0943062094389977,0.2319955741830064,0.0200382132135075,0.0219359893607499,0.0024279010274165,0.0204642393607499
205489438,0.0,0.7876403888888892,0.9417289666666666,0.3690930000000012,0.0942732794444444,0.2297124666666666,0.0206004744444444,0.0197424500293749,0.0021851705293749,0.018417875029375
205489438,0.0,0.5752787777777781,0.8834618333333333,-0.2618159999999996,0.0942738688888888,0.2304756333333333,0.0204034888888888,0.0230327590264374,0.0025492662764374,0.0214874215264374
205489438,0.0,-1.7606989444444443,0.2425233666666666,-7.201815,0.0942803527777777,0.2388704666666666,0.0182366477777777,0.04825846133725,0.0053406670039166,0.04502061133725
205489438,0.0,0.150555555555556,0.7669275666666666,-1.5236339999999997,0.0942750477777777,0.2320019666666666,0.0200095177777777,0.0296133770205625,0.0032774577705624,0.0276265145205625
205489438,0.0,0.362917166666667,0.8251947,-0.8927250000000004,0.0942744583333333,0.2312388,0.0202065033333333,0.0263230680235,0.0029133620234999,0.0245569680235
205489438,0.0,-0.2741676666666661,0.6503933,-2.785452,0.0942762266666666,0.2335283,0.0196155466666666,0.0361939950146874,0.0040056492646874,0.0337656075146875
205489438,0.0,-0.4865292777777776,0.5921261666666666,-3.416361,0.0942768161111111,0.2342914666666666,0.0194185611111111,0.03948430401175,0.00436974501175,0.03683515401175
205489438,0.0,-0.6988908888888887,0.5338590333333333,-4.04727,0.0942774055555555,0.2350546333333333,0.0192215755555555,0.0427746130088124,0.0047338407588125,0.0399047005088125
205489438,0.0,-0.9112524999999998,0.4755918999999999,-4.678179,0.094277995,0.2358178,0.01902459,0.0460649220058749,0.005097936505875,0.042974247005875
205489438,0.0,-1.1236141111111109,0.4173247666666666,-5.309088,0.0942785844444444,0.2365809666666666,0.0188276044444444,0.0493552310029375,0.0054620322529374,0.0460437935029375
205489438,0.0,-1.2297949166666664,0.3881911999999999,-5.6245425,0.0942788791666666,0.2369625499999999,0.0187291116666666,0.0510003855014687,0.0056440801264686,0.0475785667514687
205489438,0.0,-1.335975722222222,0.3590576333333333,-5.939997,0.0942791738888888,0.2373441333333333,0.0186306188888888,0.05264554,0.005826128,0.04911334
205489438,0.0,-0.061806055555555,0.7086604333333333,-2.1545430000000003,0.0942756372222222,0.2327651333333333,0.0198125322222222,0.032903686017625,0.003641553517625,0.030696061017625
205489438,0.0,-2.822507,-0.0488123,-10.35636,0.0942833,0.2426863,0.01725172,0.0372907646803749,0.0041270145137083,0.034788789680375
205529422,0.0,1.000002,0.9999961,1.000002,0.09427269,0.2289493,0.02079746,0.0164521410323124,0.0018210747823125,0.0153483285323125
205529422,0.0,-2.753879,-0.05219505,-10.41831,0.09447639,0.229641,0.02067936,0.01316183203525,0.0014569790352499,0.01227878203525
205529422,0.0,1.000002,0.9999961,1.000002,0.09427269,0.2289493,0.02079746,0.0120650623695625,0.001335613786229,0.0112555998695624
205529422,0.0,-2.753879,-0.05219505,-10.41831,0.09447639,0.229641,0.02067936,0.010968292703875,0.0012142485372082,0.0102324177038749
205559410,0.0,-0.8769385000000001,0.473900525,-4.709154,0.095066425,0.22023985,0.022729575,0.0098715230381875,0.0010928832881874,0.0092092355381874
205559410,0.0,-1.78262875,0.2097167825,-7.588467,0.0953438125,0.215608925,0.0237012824999999,0.0090489457889218,0.0010018593514217,0.0084418489139218
205569406,0.0,-2.688319,-0.05446696,-10.46778,0.0956212,0.210978,0.02467299,0.0082263685396562,0.0009108354146561,0.0076744622896562
205569406,0.0,1.000002,0.9999961,1.000002,0.09565646,0.2108387,0.02477979,0.0074037912903906,0.0008198114778905,0.0069070756653906
205569406,0.0,1.000002,0.9999961,1.000002,0.09565646,0.2108387,0.02477979,0.006581214041125,0.0007287875411249,0.006139689041125
205569406,0.0,-2.688319,-0.05446696,-10.46778,0.0956212,0.210978,0.02467299,0.0032909050440625,0.0003646917940625,0.0030701425440625
205589398,0.0,-2.6315249166666668,-0.0552860972222222,-10.51016027777778,0.0970058774999999,0.1952894833333333,0.0283838541666666,0.0426157625097916,0.0050355817597916,0.0371497950097916
205589398,0.0,-2.6628595833333333,-0.0548341594444444,-10.486778055555556,0.0962419175,0.2039452166666666,0.0263364808333333,0.0280856485442173,0.0033188475007391,0.024483363326826
205589398,0.0,-2.664818,-0.0548059133333333,-10.485316666666666,0.09619417,0.2044862,0.02620852,0.0257452275027826,0.0030423265462608,0.0224431327201739
205589398,0.0,-2.6667764166666665,-0.0547776672222222,-10.483855277777778,0.0961464225,0.2050271833333333,0.0260805591666666,0.0234048064613478,0.0027658055917826,0.0204029021135217
205589398,0.0,-2.668734833333333,-0.0547494211111111,-10.482393888888888,0.096098675,0.2055681666666666,0.0259525983333333,0.021064385419913,0.0024892846373043,0.0183626715068695
205589398,0.0,-2.67069325,-0.054721175,-10.4809325,0.0960509275,0.20610915,0.0258246374999999,0.0187239643784782,0.002212763682826,0.0163224409002173
205589398,0.0,-2.6726516666666664,-0.0546929288888888,-10.479471111111112,0.09600318,0.2066501333333333,0.0256966766666666,0.0163835433370434,0.0019362427283478,0.0142822102935652
205589398,0.0,-2.674610083333333,-0.0546646827777777,-10.478009722222222,0.0959554325,0.2071911166666666,0.0255687158333333,0.0140431222956086,0.0016597217738695,0.012241979686913
205589398,0.0,-2.6785269166666668,-0.0546081905555555,-10.475086944444444,0.0958599375,0.2082730833333333,0.0253127941666666,0.0093622802127391,0.001106679864913,0.0081615184736086
205589398,0.0,-2.6609011666666667,-0.0548624055555555,-10.488239444444444,0.096289665,0.2034042333333333,0.0264644416666666,0.0304260695856521,0.0035953684552173,0.0265235939334782
205589398,0.0,-2.6804853333333334,-0.0545799444444444,-10.473625555555556,0.09581219,0.2088140666666666,0.0251848333333333,0.0070218591713043,0.0008301589104347,0.0061212878669565
205589398,0.0,-2.68244375,-0.0545516983333333,-10.472164166666666,0.0957644425,0.20935505,0.0250568725,0.0046814381298695,0.0005536379559565,0.0040810572603043
205589398,0.0,-2.684402166666666,-0.0545234522222222,-10.470702777777776,0.095716695,0.2098960333333333,0.0249289116666666,0.0023410170884347,0.0002771170014782,0.0020408266536521
205589398,0.0,-2.6863605833333333,-0.0544952061111111,-10.469241388888888,0.0956689475,0.2104370166666666,0.0248009508333333,5.96047e-07,5.96047e-07,5.96047e-07
205589398,0.0,-2.684402166666666,-0.0545234522222222,-10.470702777777776,0.095716695,0.2098960333333332,0.0249289116666666,0.0023410170884347,0.0002771170014782,0.0020408266536521
205589398,0.0,-2.68244375,-0.0545516983333333,-10.472164166666666,0.0957644425,0.2093550499999999,0.0250568724999999,0.0046814381298695,0.0005536379559565,0.0040810572603043
205589398,0.0,-2.6804853333333334,-0.0545799444444443,-10.473625555555556,0.09581219,0.2088140666666666,0.0251848333333333,0.0070218591713043,0.0008301589104347,0.0061212878669564
205589398,0.0,-2.6785269166666668,-0.0546081905555555,-10.475086944444444,0.0958599375,0.2082730833333333,0.0253127941666666,0.0093622802127391,0.001106679864913,0.0081615184736086
205589398,0.0,-2.6765685,-0.0546364366666666,-10.476548333333334,0.095907685,0.2077321,0.025440755,0.0117027012541739,0.0013832008193913,0.0102017490802608
205589398,0.0,-2.65894275,-0.0548906516666666,-10.489700833333334,0.0963374125,0.20286325,0.0265924024999999,0.0327664906270869,0.0038718894096956,0.0285638245401304
205589398,0.0,-2.6569843333333334,-0.0549188977777777,-10.491162222222222,0.09638516,0.2023222666666666,0.0267203633333333,0.0351069116685217,0.0041484103641739,0.0306040551467826
205589398,0.0,-2.6550259166666668,-0.0549471438888888,-10.492623611111112,0.0964329075,0.2017812833333333,0.0268483241666666,0.0374473327099565,0.0044249313186521,0.0326442857534347
205589398,0.0,-2.649150666666667,-0.0550318822222221,-10.497007777777778,0.09657615,0.2001583333333333,0.0272322066666666,0.036065834178554,0.0042617071441336,0.0314399829647858
205589398,0.0,-2.6432754166666665,-0.0551166205555554,-10.501391944444446,0.0967193925,0.1985353833333333,0.0276160891666666,0.0346843356471515,0.0040984829696152,0.0302356801761369
205589398,0.0,-2.6374001666666667,-0.0552013588888888,-10.505776111111112,0.096862635,0.1969124333333333,0.0279999716666666,0.033302837115749,0.0039352587950968,0.0290313773874881
205589398,0.0,-2.6315249166666668,-0.0552860972222221,-10.51016027777778,0.0970058774999999,0.1952894833333333,0.0283838541666666,0.0319213385843465,0.0037720346205784,0.0278270745988393
205589398,0.0,-2.6256496666666664,-0.0553708355555554,-10.514544444444446,0.0971491199999999,0.1936665333333333,0.0287677366666666,0.030539840052944,0.00360881044606,0.0266227718101904
205589398,0.0,-2.6197744166666665,-0.0554555738888888,-10.518928611111113,0.0972923625,0.1920435833333333,0.0291516191666666,0.0291583415215416,0.0034455862715416,0.0254184690215416
205589398,0.0,-2.621732833333333,-0.0554273277777777,-10.517467222222225,0.0972446149999999,0.1925845666666666,0.0290236583333333,0.0314012450195833,0.0037105855195833,0.0273736900195833
205589398,0.0,-2.62369125,-0.0553990816666666,-10.516005833333336,0.0971968674999999,0.1931255499999999,0.0288956974999999,0.033644148517625,0.003975584767625,0.0293289110176249
205589398,0.0,-2.6256496666666664,-0.0553708355555555,-10.514544444444445,0.0971491199999999,0.1936665333333333,0.0287677366666666,0.0358870520156666,0.0042405840156666,0.0312841320156666
205589398,0.0,-2.627608083333333,-0.0553425894444444,-10.513083055555557,0.0971013724999999,0.1942075166666666,0.0286397758333333,0.0381299555137083,0.0045055832637083,0.0332393530137083
205589398,0.0,-2.6285872916666664,-0.0553284663888888,-10.512352361111112,0.0970774987499999,0.1944780083333332,0.0285757954166666,0.0392514072627291,0.0046380828877291,0.0342169635127291
205589398,0.0,-2.6295665,-0.0553143433333333,-10.511621666666668,0.0970536249999999,0.1947485,0.028511815,0.04037285901175,0.00477058251175,0.0351945740117499
205589398,0.0,-2.63544175,-0.055229605,-10.5072375,0.0969103825,0.19637145,0.0281279324999999,0.047101569505875,0.005565580255875,0.041060237005875
205589398,0.0,-2.6374001666666667,-0.0552013588888888,-10.505776111111112,0.096862635,0.1969124333333333,0.0279999716666666,0.0493444730039166,0.0058305795039166,0.0430154580039166
205589398,0.0,-2.6393585833333333,-0.0551731127777777,-10.504314722222222,0.0968148875,0.1974534166666666,0.0278720108333333,0.0515873765019583,0.0060955787519583,0.0449706790019583
205589398,0.0,-2.641317,-0.0551448666666666,-10.502853333333334,0.09676714,0.1979944,0.02774405,0.05383028,0.006360578,0.0469259
205589398,0.0,-2.6432754166666665,-0.0551166205555555,-10.501391944444444,0.0967193925,0.1985353833333333,0.0276160891666666,0.0514898589585652,0.0060840570455217,0.0448856693933478
205589398,0.0,-2.645233833333333,-0.0550883744444444,-10.499930555555556,0.096671645,0.1990763666666666,0.0274881283333333,0.0491494379171304,0.0058075360910434,0.0428454387866956
205589398,0.0,-2.64719225,-0.0550601283333333,-10.498469166666666,0.0966238975,0.19961735,0.0273601674999999,0.0468090168756956,0.0055310151365652,0.0408052081800434
205589398,0.0,-2.6491506666666664,-0.0550318822222222,-10.497007777777778,0.09657615,0.2001583333333333,0.0272322066666666,0.0444685958342608,0.0052544941820869,0.0387649775733913
205589398,0.0,-2.651109083333333,-0.0550036361111111,-10.495546388888888,0.0965284025,0.2006993166666666,0.0271042458333333,0.042128174792826,0.0049779732276086,0.0367247469667391
205589398,0.0,-2.6530675,-0.05497539,-10.494085,0.096480655,0.2012402999999999,0.026976285,0.0397877537513913,0.0047014522731304,0.0346845163600869
205589398,0.0,-2.6334833333333334,-0.0552578511111111,-10.508698888888889,0.0969581299999999,0.1958304666666666,0.0282558933333333,0.0448586660078333,0.0053005810078333,0.0391050160078333
205589398,0.0,-2.632880743589744,-0.0552665422222222,-10.509148547008548,0.0969728215384614,0.1956640102564101,0.0282952658974358,0.0455487901610768,0.0053821192379999,0.0397066224687692
205589398,0.0,-2.632278153846154,-0.0552752333333333,-10.509598205128205,0.096987513076923,0.1954975538461537,0.0283346384615384,0.0462389143143204,0.0054636574681666,0.0403082289297051
205589398,0.0,-2.631675564102564,-0.0552839244444444,-10.510047863247864,0.0970022046153845,0.1953310974358973,0.0283740110256409,0.046929038467564,0.0055451956983333,0.040909835390641
205589398,0.0,-2.6310729743589745,-0.0552926155555555,-10.51049752136752,0.097016896153846,0.1951646410256409,0.0284133835897435,0.0476191626208076,0.0056267339284999,0.0415114418515769
205589398,0.0,-2.6304703846153847,-0.0553013066666666,-10.51094717948718,0.0970315876923076,0.1949981846153845,0.0284527561538461,0.0483092867740512,0.0057082721586666,0.0421130483125128
205589398,0.0,-2.629867794871795,-0.0553099977777777,-10.511396837606837,0.0970462792307691,0.1948317282051281,0.0284921287179486,0.0489994109272948,0.0057898103888333,0.0427146547734487
205589398,0.0,-2.6292652051282053,-0.0553186888888888,-10.511846495726497,0.0970609707692307,0.1946652717948717,0.0285315012820512,0.0496895350805384,0.0058713486189999,0.0433162612343846
205589398,0.0,-2.6286626153846155,-0.0553273799999999,-10.512296153846156,0.0970756623076922,0.1944988153846153,0.0285708738461538,0.050379659233782,0.0059528868491666,0.0439178676953205
205589398,0.0,-2.628060025641026,-0.0553360711111111,-10.512745811965813,0.0970903538461537,0.1943323589743589,0.0286102464102563,0.0510697833870256,0.0060344250793333,0.0445194741562564
205589398,0.0,-2.627457435897436,-0.0553447622222222,-10.51319547008547,0.0971050453846153,0.1941659025641025,0.0286496189743589,0.0517599075402692,0.0061159633094999,0.0451210806171923
205589398,0.0,-2.6268548461538463,-0.0553534533333333,-10.513645128205129,0.0971197369230768,0.1939994461538461,0.0286889915384615,0.0524500316935128,0.0061975015396666,0.0457226870781282
205589398,0.0,-2.6262522564102566,-0.0553621444444444,-10.514094786324788,0.0971344284615384,0.1938329897435897,0.028728364102564,0.0531401558467564,0.0062790397698333,0.0463242935390641
205589398,0.0,-2.625649666666667,-0.0553708355555555,-10.514544444444445,0.0971491199999999,0.1936665333333332,0.0287677366666666,0.05383028,0.006360578,0.0469259
205589398,0.0,-2.6250470769230767,-0.0553795266666666,-10.514994102564104,0.0971638115384614,0.1935000769230768,0.0288071092307692,0.0484473116047,0.0057245798047,0.0422333696047
205589398,0.0,-2.624444487179487,-0.0553882177777777,-10.51544376068376,0.097178503076923,0.1933336205128205,0.0288464817948717,0.0430643432094,0.0050885816094,0.0375408392094
205589398,0.0,-2.623841897435897,-0.0553969088888888,-10.51589341880342,0.0971931946153845,0.193167164102564,0.0288858543589743,0.0376813748141,0.0044525834141,0.0328483088141
205589398,0.0,-2.6232393076923075,-0.0554056,-10.516343076923077,0.0972078861538461,0.1930007076923076,0.0289252269230769,0.0322984064187999,0.0038165852188,0.0281557784188
205589398,0.0,-2.6226367179487178,-0.0554142911111111,-10.516792735042737,0.0972225776923076,0.1928342512820512,0.0289645994871794,0.0269154380235,0.0031805870235,0.0234632480235
205589398,0.0,-2.622034128205128,-0.0554229822222222,-10.517242393162393,0.0972372692307692,0.1926677948717948,0.029003972051282,0.0215324696281999,0.0025445888282,0.0187707176282
205589398,0.0,-2.6214315384615383,-0.0554316733333333,-10.517692051282053,0.0972519607692307,0.1925013384615384,0.0290433446153846,0.0161495012329,0.0019085906328999,0.0140781872329
205589398,0.0,-2.6208289487179486,-0.0554403644444444,-10.51814170940171,0.0972666523076922,0.192334882051282,0.0290827171794871,0.0107665328375999,0.0012725924376,0.0093856568376
205589398,0.0,-2.620226358974359,-0.0554490555555555,-10.518591367521369,0.0972813438461538,0.1921684256410256,0.0291220897435897,0.0053835644422999,0.0006365942423,0.0046931264423
205589398,0.0,-2.619623769230769,-0.0554577466666666,-10.519041025641028,0.0972960353846153,0.1920019692307692,0.0291614623076923,5.96047e-07,5.96047e-07,5.96047e-07
205589398,0.0,-2.6190211794871794,-0.0554664377777777,-10.519490683760685,0.0973107269230769,0.1918355128205128,0.0292008348717948,0.0089722100391666,0.0010605930391666,0.0078214800391666
205589398,0.0,-2.6184185897435897,-0.0554751288888888,-10.519940341880345,0.0973254184615384,0.1916690564102564,0.0292402074358974,0.0179438240313333,0.0021205900313333,0.0156423640313333
205609390,0.0,-2.617816,-0.05548382,-10.52039,0.09734011,0.1915026,0.02927958,0.0269154380235,0.0031805870235,0.0234632480235
205609390,0.0,1.000002,0.9999961,1.000002,0.09738598,0.1910687,0.02944509,0.0261678035241527,0.0030922539408194,0.0228115076908194
205609390,0.0,-2.617816,-0.05548382,-10.52039,0.09734011,0.1915026,0.02927958,0.0254201690248055,0.0030039208581388,0.0221597673581388
205609390,0.0,1.000002,0.9999961,1.000002,0.09738598,0.1910687,0.02944509,0.0246725345254583,0.0029155877754583,0.0215080270254583
205649374,0.0,-2.555864,-0.05913622,-10.57721,0.09622853,0.1831256,0.03477064,0.0224296310274166,0.0026505885274166,0.0195528060274166
205649374,0.0,1.000002,0.9999961,1.000002,0.09622671,0.1832053,0.03476657,0.0216819965280694,0.002562255444736,0.018901065694736
205649374,0.0,-2.555864,-0.05913622,-10.57721,0.09622853,0.1831256,0.03477064,0.0209343620287222,0.0024739223620554,0.0182493253620554
205649374,0.0,1.000002,0.9999961,1.000002,0.09622671,0.1832053,0.03476657,0.020186727529375,0.0023855892793749,0.0175975850293749
205689358,0.0,1.000002,0.9999961,1.000002,0.0960042988888888,0.1819061666666666,0.0361201788888888,5.96047e-07,5.96047e-07,5.96047e-07
205689358,0.0,1.000002,0.9999961,1.000002,0.0957818877777777,0.1806070333333333,0.0374737877777777,0.0022434995450416,0.0002655952950416,0.0019558170450416
205689358,0.0,1.000002,0.9999961,1.000002,0.0958374905555555,0.1809318166666666,0.0371353855555555,0.0044864030430833,0.0005305945430833,0.0039110380430833
205689358,0.0,1.000002,0.9999961,1.000002,0.0959486961111111,0.1815813833333333,0.0364585811111111,0.0089722100391666,0.0010605930391666,0.0078214800391666
205689358,0.0,1.000002,0.9999961,1.000002,0.0958930933333333,0.1812566,0.0367969833333333,0.006729306541125,0.0007955937911249,0.0058662590411249
205689358,0.0,1.000002,0.9999961,1.000002,0.0958189562962962,0.1808235555555555,0.0372481862962962,0.0221179510274166,0.0026307535274166,0.0182244960274166
205689358,0.0,1.000002,0.9999961,1.000002,0.0957448192592592,0.180390511111111,0.0376993892592592,0.0375065955137083,0.0044659132637083,0.0305827330137083
205689358,0.0,1.000002,0.9999961,1.000002,0.0956706822222222,0.1799574666666666,0.0381505922222222,0.05289524,0.006301073,0.04294097
205689358,0.0,1.000002,0.9999961,1.000002,0.0958374905555555,0.1809318166666665,0.0371353855555555,0.05289524,0.006301073,0.04294097
205689358,0.0,1.000002,0.9999961,1.000002,0.0960042988888888,0.1819061666666666,0.0361201788888888,0.0112151135372083,0.0013255922872083,0.0097767010372083
205689358,0.0,1.000002,0.9999961,1.000002,0.0960321002777777,0.1820685583333332,0.0359509777777777,0.0123365652862291,0.0014580919112291,0.0107543115362291
205689358,0.0,1.000002,0.9999961,1.000002,0.0960599016666666,0.1822309499999999,0.0357817766666666,0.0134580170352499,0.0015905915352499,0.0117319220352499
205689358,0.0,1.000002,0.9999961,1.000002,0.0960877030555555,0.1823933416666666,0.0356125755555555,0.0145794687842707,0.0017230911592707,0.0127095325342707
205689358,0.0,1.000002,0.9999961,1.000002,0.0961155044444444,0.1825557333333333,0.0354433744444444,0.0157009205332916,0.0018555907832916,0.0136871430332916
205689358,0.0,1.000002,0.9999961,1.000002,0.0960042988888888,0.1819061666666666,0.0361201788888888,0.015950132033074,0.0018850351441851,0.0139043898108517
205689358,0.0,1.000002,0.9999961,1.000002,0.0958930933333333,0.1812566,0.0367969833333333,0.0161993435328564,0.0019144795050786,0.0141216365884119
205689358,0.0,1.000002,0.9999961,1.000002,0.0957818877777777,0.1806070333333333,0.0374737877777777,0.0164485550326388,0.0019439238659721,0.0143388833659721
205689358,0.0,1.000002,0.9999961,1.000002,0.0956706822222221,0.1799574666666666,0.0381505922222221,0.0166977665324212,0.0019733682268656,0.0145561301435323
205689358,0.0,1.000002,0.9999961,1.000002,0.0955594766666666,0.1793079,0.0388273966666666,0.0169469780322036,0.0020028125877592,0.0147733769210925
205689358,0.0,1.000002,0.9999961,1.000002,0.0954482711111111,0.1786583333333333,0.0395042011111111,0.017196189531986,0.0020322569486527,0.0149906236986527
205689358,0.0,1.000002,0.9999961,1.000002,0.0953370655555555,0.1780087666666666,0.0401810055555555,0.0174454010317684,0.0020617013095462,0.0152078704762129
205689358,0.0,1.000002,0.9999961,1.000002,0.09522586,0.1773592,0.04085781,0.0176946125315508,0.0020911456704397,0.0154251172537731
205689358,0.0,1.000002,0.9999961,1.000002,0.0961711072222222,0.1828805166666666,0.0351049722222222,0.0179438240313333,0.0021205900313333,0.0156423640313333
205689358,0.0,1.000002,0.9999961,1.000002,0.0960599016666666,0.18223095,0.0357817766666666,0.01345801703525,0.0015905915352499,0.0117319220352499
205689358,0.0,-2.489522,-0.06411396,-10.62415,0.09526209,0.17743,0.04086321,0.006729306541125,0.0007955937911249,0.0058662590411249
205689358,0.0,1.000002,0.9999961,1.000002,0.095726285,0.1802822499999999,0.0378121899999999,5.96047e-07,5.96047e-07,5.96047e-07
205689358,1.0,0.1470072444444444,0.7398803075555556,-1.8414573777777776,0.0942962759999999,0.1836628333333332,0.0395376144444443,0.0175409107960392,0.002068412815647,0.013922060698
205689358,1.0,-0.7059875111111111,0.479764515111111,-4.682916755555556,0.0928662669999999,0.1870434166666666,0.0412630388888888,0.0350812255450784,0.004136229584294,0.027843525349
205689358,1.0,-1.5589822666666666,0.2196487226666666,-7.524376133333334,0.0914362579999999,0.190424,0.0429884633333333,0.0526215402941176,0.0062040463529411,0.04176499
205689358,1.0,-1.326347333333333,0.2905893933333333,-6.749432666666667,0.0904798,0.1936725,0.0435197766666666,0.0526004864705882,0.0061965827647058,0.04167453
205689358,1.0,-1.2100298666666665,0.3260597286666666,-6.361960933333334,0.0900015709999999,0.19529675,0.0437854333333333,0.0525899595588235,0.0061928509705881,0.0416293
205689358,1.0,-1.0937123999999998,0.361530064,-5.9744892,0.0895233419999999,0.196921,0.04405109,0.0525794326470588,0.0061891191764705,0.04158407
205689358,1.0,-0.8610774666666665,0.4324707346666666,-5.199545733333333,0.088566884,0.2001695,0.0445824033333333,0.0525583788235294,0.0061816555882352,0.04149361
205689358,1.0,-0.6284425333333332,0.5034114053333333,-4.424602266666667,0.0876104259999999,0.203418,0.0451137166666666,0.052537325,0.006174192,0.04140315
205689358,1.0,-0.3958075999999999,0.5743520759999999,-3.6496588,0.086653968,0.2066665,0.0456450299999999,0.0525162711764705,0.0061667284117647,0.04131269
205689358,1.0,0.3020972,0.787174088,-1.3248284,0.0911345237222222,0.1931495916666666,0.0420670122222221,0.0526952286764705,0.0062301689117647,0.0420816
205689358,1.0,1.000002,0.9999961,1.000002,0.0956150794444444,0.1796326833333333,0.0384889944444444,0.0528741861764705,0.0062936094117647,0.04285051
205689358,1.0,0.0694622666666666,0.7162334173333332,-2.099771866666666,0.084741052,0.2131635,0.0467076566666666,0.0524741635294117,0.0061518012352941,0.04113177
205689358,1.0,0.3020972000000004,0.787174088,-1.3248283999999997,0.0837845939999999,0.216412,0.04723897,0.0524531097058823,0.0061443376470588,0.04104131
205689358,1.0,0.3796421777777781,0.8108209782222222,-1.0665139111111108,0.0834657746666666,0.2174948333333333,0.0474160744444444,0.0524460917647058,0.0061418497843137,0.0410111566666666
205689358,1.0,0.4571871555555559,0.8344678684444444,-0.8081994222222219,0.0831469553333333,0.2185776666666666,0.0475931788888888,0.0524390738235293,0.0061393619215686,0.0409810033333333
205689358,1.0,0.5347321333333337,0.8581147586666666,-0.5498849333333329,0.082828136,0.2196605,0.0477702833333333,0.0524320558823529,0.0061368740588235,0.04095085
205689358,1.0,0.767367066666667,0.9290554293333332,0.2250585333333337,0.081871678,0.222909,0.0483015966666666,0.0524110020588235,0.0061294104705882,0.0408603899999999
205689358,1.0,0.1276210000000002,0.733968585,-1.906036,0.0845019375,0.213975625,0.0468404849999999,0.0524689000735293,0.0061499353382352,0.0411091549999999
205689358,1.0,-0.5121250666666666,0.5388817406666666,-4.037130533333333,0.087132197,0.2050422499999999,0.0453793733333333,0.0525267980882352,0.0061704602058823,0.0413579199999999
205689358,1.0,-1.1518711333333334,0.3437948963333334,-6.1682250666666665,0.0897624565,0.196108875,0.0439182616666666,0.0525846961029411,0.0061909850735293,0.0416066849999999
205689358,1.0,-1.7916172,0.148708052,-8.2993196,0.092392716,0.1871755,0.04245715,0.052642594117647,0.0062115099411764,0.04185545
205689358,1.0,-0.1631726666666666,0.6452927466666666,-2.874715333333333,0.0856975099999999,0.209915,0.0461763433333333,0.0524952173529411,0.0061592648235294,0.04122223
205689358,1.0,-0.4733525777777776,0.5507051857777777,-3.907973288888889,0.0869727873333332,0.2055836666666666,0.0454679255555555,0.0525232891176469,0.0061692162745097,0.0413428433333333
205689358,1.0,-0.7835324888888887,0.4561176248888888,-4.941231244444445,0.0882480646666666,0.2012523333333333,0.0447595077777777,0.0525513608823528,0.0061791677254901,0.0414634566666666
205689358,1.0,-1.0937123999999998,0.3615300639999999,-5.974489200000001,0.0895233419999999,0.196921,0.0440510899999999,0.0525794326470587,0.0061891191764705,0.04158407
205689358,1.0,-1.4038923111111108,0.266942503111111,-7.007747155555558,0.0907986193333332,0.1925896666666666,0.0433426722222221,0.0526075044117646,0.0061990706274509,0.0417046833333333
205689358,1.0,-1.7140722222222218,0.1723549422222222,-8.041005111111113,0.0920738966666666,0.1882583333333333,0.0426342544444443,0.0526355761764705,0.0062090220784313,0.0418252966666666
205689358,1.0,-2.024252133333333,0.0777673813333333,-9.074263066666669,0.093349174,0.183927,0.0419258366666666,0.0526636479411764,0.0062189735294117,0.04194591
205689358,1.0,1.000002,0.9999961,1.000002,0.0955594766666666,0.1793079,0.0388273966666666,0.0528531323529411,0.0062861458235294,0.04276005
205689358,1.0,1.000002,0.9999961,1.000002,0.0955038738888888,0.1789831166666666,0.0391657988888888,0.0528320785294117,0.0062786822352941,0.04266959
205689358,1.0,1.000002,0.9999961,1.000002,0.0954482711111111,0.1786583333333333,0.0395042011111111,0.0528110247058823,0.0062712186470588,0.04257913
205689358,1.0,1.000002,0.9999961,1.000002,0.0953926683333333,0.17833355,0.0398426033333333,0.0527899708823529,0.0062637550588235,0.04248867
205689358,1.0,1.000002,0.9999961,1.000002,0.0953370655555555,0.1780087666666666,0.0401810055555554,0.0527689170588235,0.0062562914705882,0.04239821
205689358,1.0,1.000002,0.9999961,1.000002,0.0952814627777777,0.1776839833333333,0.0405194077777777,0.0527478632352941,0.0062488278823529,0.04230775
205689358,1.0,1.000002,0.9999961,1.000002,0.0952999970370369,0.1777922444444444,0.0404066070370369,0.0527548811764705,0.006251315745098,0.0423379033333333
205689358,1.0,1.000002,0.9999961,1.000002,0.0953185312962962,0.1779005055555555,0.0402938062962962,0.052761899117647,0.0062538036078431,0.0423680566666666
205689358,1.0,1.000002,0.9999961,1.000002,0.0953370655555555,0.1780087666666666,0.0401810055555555,0.0527689170588235,0.0062562914705882,0.04239821
205689358,1.0,-2.489522,-0.06411396,-10.62415,0.09526209,0.17743,0.04086321,0.0527057555882352,0.0062339007058823,0.04212683
205689358,1.0,-2.2568870666666667,0.0068267106666666,-9.849206533333334,0.094305632,0.1806785,0.0413945233333333,0.0526847017647058,0.006226437117647,0.04203637
205689358,1.0,1.000002,0.9999961,1.000002,0.09522586,0.1773592,0.04085781,0.0527268094117647,0.0062413642941176,0.04221729
205735173,1.0,1.000002,0.9999961,1.000002,0.08091522,0.2261575,0.04883291,0.0523899482352941,0.0061219468823529,0.0407699299999999
205735173,1.0,1.000002,0.9999961,1.000002,0.08091522,0.2261575,0.04883291,0.0523794213235294,0.0061182150882352,0.0407246999999999
205735173,1.0,-2.414662,-0.06264153,-10.67118,0.0810591,0.2254254,0.0488413,0.0523688944117647,0.0061144832941176,0.0406794699999999
205735173,1.0,-2.414662,-0.06264153,-10.67118,0.0810591,0.2254254,0.0488413,0.0523548585294117,0.0061095075686274,0.0406191633333332
205775157,1.0,-2.349816,-0.06662442,-10.72537,0.08321273,0.2070705,0.05602983,0.0523408226470587,0.0061045318431372,0.0405588566666666
205775157,1.0,1.000002,0.9999961,1.000002,0.08321163,0.2067104,0.05635826,0.0523267867647058,0.006099556117647,0.04049855
205775157,1.0,-2.349816,-0.06662442,-10.72537,0.08321273,0.2070705,0.05602983,0.0523478405882352,0.0061070197058823,0.0405890099999999
205775157,1.0,1.000002,0.9999961,1.000002,0.08321163,0.2067104,0.05635826,0.0523057329411764,0.0060920925294117,0.0404080899999999
205795149,1.0,1.000002,0.9999961,1.000002,0.0846010409090909,0.2001424272727272,0.0581385084848484,0.0522636252941176,0.0060771653529411,0.0402271699999999
205795149,1.0,1.000002,0.9999961,1.000002,0.0859904518181818,0.1935744545454545,0.0599187569696969,0.0522215176470588,0.0060622381764705,0.0400462499999999
205795149,1.0,1.000002,0.9999961,1.000002,0.0873798627272726,0.1870064818181817,0.0616990054545454,0.05217941,0.006047311,0.03986533
205795149,1.0,1.000002,0.9999961,1.000002,0.0887692736363636,0.180438509090909,0.0634792539393939,0.0517245753448275,0.006001489,0.0388828305172413
205795149,1.0,1.000002,0.9999961,1.000002,0.0885707863636363,0.1813767909090909,0.0632249327272727,0.051746234137931,0.0060036709999999,0.0389296162068965
205795149,1.0,1.000002,0.9999961,1.000002,0.0889677609090908,0.1795002272727272,0.063733575151515,0.0517029165517241,0.0059993069999999,0.0388360448275861
205795149,1.0,1.000002,0.9999961,1.000002,0.0893647354545454,0.1776236636363636,0.0642422175757575,0.0516595989655172,0.005994943,0.0387424734482758
205795149,1.0,1.000002,0.9999961,1.000002,0.0888685172727272,0.1799693681818181,0.0636064145454545,0.0517137459482758,0.0060003979999999,0.0388594376724137
205795149,1.0,1.000002,0.9999961,1.000002,0.088372299090909,0.1823150727272727,0.0629706115151515,0.0517678929310344,0.0060058529999999,0.0389764018965517
205795149,1.0,1.000002,0.9999961,1.000002,0.0886369487878787,0.1810640303030302,0.0633097064646464,0.0517390145402298,0.0060029436666666,0.0389140209770114
205795149,1.0,1.000002,0.9999961,1.000002,0.0889015984848484,0.1798129878787878,0.0636488014141413,0.0517101361494252,0.0060000343333333,0.0388516400574712
205795149,1.0,1.000002,0.9999961,1.000002,0.0891662481818181,0.1785619454545454,0.0639878963636363,0.0516812577586206,0.005997125,0.038789259137931
205795149,1.0,1.000002,0.9999961,1.000002,0.0893647354545454,0.1776236636363636,0.0642422175757575,0.0516595989655171,0.005994943,0.0387424734482758
205795149,1.0,1.000002,0.9999961,1.000002,0.0895632227272727,0.1766853818181818,0.0644965387878787,0.0516379401724138,0.005992761,0.0386956877586206
205795149,1.0,1.000002,0.9999961,1.000002,0.0875783499999999,0.1860681999999999,0.0619533266666666,0.0518535198208248,0.0060233836470588,0.0392363351724137
205795149,1.0,1.000002,0.9999961,1.000002,0.0855934772727272,0.1954510181818181,0.0594101145454545,0.0520690994692359,0.0060540062941176,0.0397769825862068
205795149,1.0,1.000002,0.9999961,1.000002,0.0836086045454545,0.2048338363636363,0.0568669024242424,0.052284679117647,0.0060846289411764,0.04031763
205795149,1.0,1.000002,0.9999961,1.000002,0.0853949899999999,0.1963892999999999,0.0591557933333333,0.0520907582623393,0.0060561882941176,0.039823768275862
205795149,1.0,1.000002,0.9999961,1.000002,0.0871813754545454,0.1879447636363635,0.0614446842424242,0.0518968374070317,0.0060277476470588,0.0393299065517241
205795149,1.0,1.000002,0.9999961,1.000002,0.0889677609090909,0.1795002272727272,0.0637335751515151,0.0517029165517241,0.005999307,0.0388360448275862
205795149,1.0,1.000002,0.9999961,1.000002,0.0881738118181818,0.1832533545454545,0.0627162903030303,0.0517895517241379,0.006008035,0.0390231875862068
205795149,1.0,1.000002,0.9999961,1.000002,0.0838070918181818,0.2038955545454545,0.0571212236363636,0.0522636252941176,0.0060771653529411,0.04022717
205795149,1.0,1.000002,0.9999961,1.000002,0.0877768372727272,0.1851299181818181,0.0622076478787878,0.0518328693103448,0.006012399,0.0391167589655172
205795149,1.0,1.000002,0.9999961,1.000002,0.0875199713903742,0.1863441652406416,0.0618785263101603,0.0518606848180407,0.0060170868546712,0.0391927196146044
205795149,1.0,1.000002,0.9999961,1.000002,0.0872631055080213,0.1875584122994651,0.0615494047415329,0.0518885003257367,0.0060217747093425,0.0392686802636916
205795149,1.0,1.000002,0.9999961,1.000002,0.0870062396256683,0.1887726593582886,0.0612202831729054,0.0519163158334327,0.0060264625640138,0.0393446409127788
205795149,1.0,1.000002,0.9999961,1.000002,0.0867493737433154,0.1899869064171122,0.060891161604278,0.0519441313411287,0.0060311504186851,0.039420601561866
205795149,1.0,1.000002,0.9999961,1.000002,0.0864925078609624,0.1912011534759357,0.0605620400356505,0.0519719468488246,0.0060358382733563,0.0394965622109533
205795149,1.0,1.000002,0.9999961,1.000002,0.0862356419786095,0.1924154005347592,0.0602329184670231,0.0519997623565206,0.0060405261280276,0.0395725228600405
205795149,1.0,1.000002,0.9999961,1.000002,0.0859787760962566,0.1936296475935828,0.0599037968983956,0.0520275778642166,0.0060452139826989,0.0396484835091277
205795149,1.0,1.000002,0.9999961,1.000002,0.0857219102139036,0.1948438946524063,0.0595746753297682,0.0520553933719126,0.0060499018373702,0.0397244441582149
205795149,1.0,1.000002,0.9999961,1.000002,0.0854650443315507,0.1960581417112298,0.0592455537611407,0.0520832088796085,0.0060545896920414,0.0398004048073022
205795149,1.0,1.000002,0.9999961,1.000002,0.0852081784491977,0.1972723887700533,0.0589164321925133,0.0521110243873045,0.0060592775467127,0.0398763654563894
205795149,1.0,1.000002,0.9999961,1.000002,0.0849513125668448,0.1984866358288769,0.0585873106238858,0.0521388398950005,0.006063965401384,0.0399523261054766
205795149,1.0,1.000002,0.9999961,1.000002,0.0846944466844919,0.1997008828877004,0.0582581890552584,0.0521666554026965,0.0060686532560553,0.0400282867545638
205795149,1.0,1.000002,0.9999961,1.000002,0.0844375808021389,0.2009151299465239,0.0579290674866309,0.0521944709103925,0.0060733411107265,0.0401042474036511
205795149,1.0,1.000002,0.9999961,1.000002,0.084180714919786,0.2021293770053475,0.0575999459180035,0.0522222864180884,0.0060780289653978,0.0401802080527383
205795149,1.0,1.000002,0.9999961,1.000002,0.083923849037433,0.203343624064171,0.057270824349376,0.0522501019257844,0.0060827168200691,0.0402561687018255
205795149,1.0,1.000002,0.9999961,1.000002,0.0836669831550801,0.2045578711229945,0.0569417027807486,0.0522779174334804,0.0060874046747404,0.0403321293509127
205795149,1.0,1.000002,0.9999961,1.000002,0.0834101172727272,0.2057721181818181,0.0566125812121212,0.0523057329411764,0.0060920925294117,0.04040809
205795149,1.0,1.000002,0.9999961,1.000002,0.083707848181818,0.2043646954545454,0.0569940630303029,0.0522741522058823,0.0060808971470587,0.0402724
205795149,1.0,1.000002,0.9999961,1.000002,0.084005579090909,0.2029572727272727,0.0573755448484848,0.0522425714705882,0.0060697017647058,0.04013671
205795149,1.0,1.000002,0.9999961,1.000002,0.0842040663636363,0.2020189909090909,0.057629866060606,0.0522215176470588,0.0060622381764705,0.04004625
205795149,1.0,1.000002,0.9999961,1.000002,0.0858912081818181,0.1940435954545454,0.0597915963636363,0.0520380228752535,0.0060384095882352,0.0396048973275861
205795149,1.0,1.000002,0.9999961,1.000002,0.08757835,0.1860682,0.0619533266666666,0.0518545281034482,0.006014581,0.0391635446551724
205795149,1.0,1.000002,0.9999961,1.000002,0.0873798627272727,0.1870064818181818,0.0616990054545454,0.0518761868965517,0.006016763,0.0392103303448275
205795149,1.0,1.000002,0.9999961,1.000002,0.0871813754545454,0.1879447636363636,0.0614446842424242,0.0518978456896551,0.0060189449999999,0.0392571160344827
205795149,1.0,1.000002,0.9999961,1.000002,0.0869828881818181,0.1888830454545454,0.061190363030303,0.0519195044827586,0.0060211269999999,0.0393039017241379
205795149,1.0,1.000002,0.9999961,1.000002,0.0868836445454545,0.1893521863636363,0.0610632024242424,0.0519303338793103,0.0060222179999999,0.0393272945689655
205795149,1.0,1.000002,0.9999961,1.000002,0.0867844009090909,0.1898213272727272,0.0609360418181818,0.051941163275862,0.0060233089999999,0.0393506874137931
205795149,1.0,1.000002,0.9999961,1.000002,0.0865859136363636,0.190759609090909,0.0606817206060606,0.0519628220689655,0.006025491,0.0393974731034482
205795149,1.0,1.000002,0.9999961,1.000002,0.0863874263636363,0.1916978909090909,0.0604273993939393,0.0519844808620689,0.006027673,0.0394442587931034
205795149,1.0,1.000002,0.9999961,1.000002,0.0879753245454545,0.1841916363636363,0.062461969090909,0.0518112105172413,0.006010217,0.039069973275862
205795149,1.0,1.000002,0.9999961,1.000002,0.086188939090909,0.1926361727272727,0.0601730781818181,0.0520061396551724,0.006029855,0.0394910444827586
205795149,1.0,1.000002,0.9999961,1.000002,0.0857919645454545,0.1945127363636363,0.0596644357575757,0.0520494572413793,0.0060342189999999,0.0395846158620689
205795149,1.0,1.000002,0.9999961,1.000002,0.0855934772727272,0.1954510181818181,0.0594101145454545,0.0520711160344827,0.0060364009999999,0.0396314015517241
205795149,1.0,1.000002,0.9999961,1.000002,0.0853949899999999,0.1963893,0.0591557933333333,0.0520927748275862,0.0060385829999999,0.0396781872413793
205795149,1.0,1.000002,0.9999961,1.000002,0.0851965027272727,0.1973275818181818,0.0589014721212121,0.0521144336206896,0.006040765,0.0397249729310344
205795149,1.0,1.000002,0.9999961,1.000002,0.0849980154545454,0.1982658636363636,0.0586471509090909,0.0521360924137931,0.006042947,0.0397717586206896
205795149,1.0,1.000002,0.9999961,1.000002,0.0847995281818181,0.1992041454545454,0.0583928296969697,0.0521577512068965,0.006045129,0.0398185443103448
205795149,1.0,1.000002,0.9999961,1.000002,0.0846010409090909,0.2001424272727272,0.0581385084848484,0.05217941,0.006047311,0.03986533
205795149,1.0,1.000002,0.9999961,1.000002,0.0844025536363636,0.201080709090909,0.0578841872727272,0.0522004638235294,0.0060547745882352,0.03995579
205795149,1.0,1.000002,0.9999961,1.000002,0.0859904518181818,0.1935744545454545,0.0599187569696969,0.0520277984482758,0.006032037,0.0395378301724137
205795149,1.0,-0.6431009999999999,0.46572828,-4.885569,0.0878936709090908,0.1847242272727272,0.0623865834848484,0.0518112105172413,0.0060102169999999,0.0390699732758619
205815141,1.0,-2.286204,-0.06853954,-10.77114,0.08979689,0.175874,0.06485441,0.0515946225862068,0.0059883969999999,0.0386021163793103
205815141,1.0,1.000002,0.9999961,1.000002,0.08976171,0.1757471,0.06475086,0.0516018421839079,0.0059891243333332,0.0386177116091953
205815141,1.0,-2.286204,-0.06853954,-10.77114,0.08979689,0.175874,0.06485441,0.0516090617816091,0.0059898516666665,0.0386333068390804
205815141,1.0,1.000002,0.9999961,1.000002,0.08976171,0.1757471,0.06475086,0.0516162813793103,0.0059905789999999,0.0386489020689655
205822638,1.0,0.1784504999999999,0.7328621900000001,-1.9427835,0.0905772849999999,0.1694117,0.0670259725,0.0515946225862068,0.0059883969999999,0.0386021163793103
205822638,1.0,-0.6431010000000001,0.46572828,-4.885569,0.0913928599999999,0.1630763,0.069301085,0.0515729637931034,0.005986215,0.0385553306896551
205855125,1.0,1.000002,0.9999961,1.000002,0.09298883,0.1502786,0.07374776,0.0515585245977011,0.0059847603333333,0.038524140229885
205855125,1.0,-2.226169,-0.07078412,-10.81123,0.09299332,0.1498668,0.07376569,0.0515440854022988,0.0059833056666666,0.0384929497701149
205855125,1.0,-2.226169,-0.07078412,-10.81123,0.09299332,0.1498668,0.07376569,0.0515296462068965,0.005981851,0.0384617593103448
205855125,1.0,1.000002,0.9999961,1.000002,0.09298883,0.1502786,0.07374776,0.051551305,0.005984033,0.038508545
205880115,1.0,-0.5510417500000002,0.4851979173076923,-4.678474923076923,0.093039465576923,0.149811923076923,0.073952433076923,0.0515296462068965,0.005981851,0.0384617593103448
205880115,1.0,-2.1020855000000003,-0.0296002653846153,-10.356951846153846,0.0930901011538461,0.1493452461538461,0.0741571061538461,0.0515079874137931,0.005979669,0.0384149736206896
205895109,1.0,-1.5365917407407408,0.1542714504843305,-8.327603082621083,0.0941856789173788,0.1448624418803418,0.0794550874358974,0.0509232,0.005920755,0.03715176
205895109,1.0,-0.9710979814814816,0.3381431663532764,-6.298254319088319,0.0952812566809116,0.1403796376068375,0.0847530687179487,0.0507796180645161,0.005910721,0.0369182303225806
205895109,1.0,-0.405604222222222,0.5220148822222223,-4.268905555555556,0.0963768344444444,0.1358968333333333,0.09005105,0.0506360361290322,0.005900687,0.0366847006451612
205895109,1.0,-0.7570057777777777,0.4025195777777778,-5.586132444444445,0.0962035855555555,0.1360162666666666,0.08882787,0.0507078270967742,0.0059057039999999,0.0368014654838709
205895109,1.0,-1.459808888888889,0.1635289688888889,-8.220586222222224,0.0958570877777777,0.1362551333333333,0.08638151,0.050851409032258,0.0059157379999999,0.0370349951612903
205895109,1.0,-1.6355096666666669,0.1037813166666666,-8.879199666666668,0.0957704633333333,0.1363148499999999,0.08576992,0.050887304516129,0.0059182464999999,0.0370933775806451
205895109,1.0,-1.8112104444444448,0.0440336644444444,-9.537813111111111,0.0956838388888889,0.1363745666666666,0.08515833,0.0509232,0.005920755,0.03715176
205895109,1.0,-2.162612,-0.07546164,-10.85504,0.09551059,0.136494,0.08393515,0.0509448587931034,0.005922937,0.0371985456896551
205895109,1.0,1.000002,0.9999961,1.000002,0.09550963,0.1363064,0.08394251,0.0509665175862069,0.0059251189999999,0.0372453313793103
205895109,1.0,0.8759185,0.9588122453846154,0.5457238461538463,0.0954128488461538,0.1368279538461538,0.0835510938461538,0.0509881763793103,0.0059273009999999,0.0372921170689655
205895109,1.0,0.7518349999999998,0.9176283907692308,0.0914456923076922,0.0953160676923076,0.1373495076923077,0.0831596776923076,0.0510098351724137,0.005929483,0.0373389027586206
205895109,1.0,-1.1084073333333333,0.2830242733333333,-6.903359333333334,0.0960303366666666,0.1361357,0.08760469,0.0507796180645161,0.005910721,0.0369182303225806
205895109,1.0,-0.6691553888888888,0.4323934038888888,-5.256825722222223,0.0962468977777777,0.1359864083333333,0.0891336649999999,0.0506898793548386,0.00590444975,0.0367722742741934
205895109,1.0,-0.2299034444444442,0.5817625344444444,-3.610292111111112,0.0964634588888888,0.1358371166666666,0.0906626399999999,0.0506001406451612,0.0058981785,0.0366263182258064
205895109,1.0,0.2093485000000003,0.7311316649999999,-1.9637585000000009,0.0966800199999999,0.1356878249999999,0.0921916149999999,0.0505104019354838,0.00589190725,0.0364803621774193
205895109,1.0,0.6486004444444449,0.8805007955555556,-0.3172248888888891,0.0968965811111111,0.1355385333333333,0.0937205899999999,0.0504206632258064,0.005885636,0.0363344061290322
205895109,1.0,0.8243012222222225,0.9402484477777778,0.3413885555555555,0.0962031055555555,0.1359224666666666,0.0888315499999999,0.0504386109677418,0.0058868902499999,0.0363635973387096
205895109,1.0,1.000002,0.9999961,1.000002,0.09550963,0.1363064,0.08394251,0.0504565587096773,0.0058881444999999,0.036392788548387
205895109,1.0,-2.162612,-0.07546164,-10.85504,0.09551059,0.136494,0.08393515,0.0504745064516128,0.00588939875,0.0364219797580644
205895109,1.0,0.2971988888888894,0.7610054911111112,-1.6344517777777785,0.0967233322222222,0.1356579666666666,0.09249741,0.0504924541935483,0.005890653,0.0364511709677419
205895109,1.0,-0.0542026666666664,0.6415101866666667,-2.951678666666667,0.0965500833333333,0.1357774,0.09127423,0.0505642451612903,0.0058956699999999,0.0365679358064516
205895109,1.0,0.0077931666666669,0.6628678548018648,-2.716329011655012,0.0964291018065267,0.1359677328671328,0.0905009601398601,0.0506067223253109,0.0058989422727271,0.0366422769557083
205895109,1.0,0.0697890000000002,0.684225522937063,-2.4809793566433567,0.0963081202797202,0.1361580657342657,0.0897276902797202,0.0506491994893315,0.0059022145454544,0.036716618104965
205895109,1.0,0.1317848333333335,0.7055831910722611,-2.2456297016317013,0.0961871387529137,0.1363483986013985,0.0889544204195804,0.0506916766533521,0.0059054868181817,0.0367909592542218
205895109,1.0,0.1937806666666668,0.7269408592074592,-2.0102800466200463,0.0960661572261071,0.1365387314685314,0.0881811505594405,0.0507341538173728,0.005908759090909,0.0368653004034785
205895109,1.0,0.2557765000000002,0.7482985273426574,-1.774930391608391,0.0959451756993006,0.1367290643356643,0.0874078806993006,0.0507766309813934,0.0059120313636363,0.0369396415527353
205895109,1.0,0.3177723333333335,0.7696561954778556,-1.5395807365967358,0.0958241941724941,0.1369193972027971,0.0866346108391608,0.050819108145414,0.0059153036363635,0.037013982701992
205895109,1.0,0.3797681666666668,0.7910138636130537,-1.3042310815850806,0.0957032126456876,0.13710973006993,0.0858613409790209,0.0508615853094346,0.0059185759090908,0.0370883238512488
205895109,1.0,0.4417640000000001,0.8123715317482518,-1.0688814265734254,0.095582231118881,0.1373000629370629,0.085088071118881,0.0509040624734553,0.0059218481818181,0.0371626650005055
205895109,1.0,0.5037598333333334,0.83372919988345,-0.8335317715617703,0.0954612495920745,0.1374903958041957,0.0843148012587412,0.0509465396374759,0.0059251204545454,0.0372370061497623
205895109,1.0,0.5657556666666668,0.8550868680186481,-0.5981821165501149,0.095340268065268,0.1376807286713286,0.0835415313986013,0.0509890168014965,0.0059283927272727,0.037311347299019
205895109,1.0,0.6277515,0.8764445361538462,-0.3628324615384599,0.0952192865384615,0.1378710615384615,0.0827682615384615,0.0510314939655172,0.005931665,0.0373856884482758
205895109,1.0,0.5657097499999999,0.8558526088461539,-0.5899715384615369,0.0951708959615384,0.1381318384615384,0.0825725534615384,0.0510423233620689,0.005932756,0.0374090812931034
205895109,1.0,0.5036679999999998,0.8352606815384616,-0.8171106153846139,0.0951225053846153,0.1383926153846154,0.0823768453846153,0.0510531527586206,0.005933847,0.037432474137931
205895109,1.0,0.3795844999999997,0.7940768269230769,-1.271388769230768,0.0950257242307691,0.1389141692307692,0.0819854292307691,0.051074811551724,0.005936029,0.0374792598275861
205895109,1.0,0.2555009999999997,0.7528929723076924,-1.725666923076922,0.094928943076923,0.139435723076923,0.081594013076923,0.0510964703448275,0.005938211,0.0375260455172413
205895109,1.0,-0.4890000000000001,0.5057898446153847,-4.451335846153846,0.0943482561538461,0.1425650461538461,0.0792455161538461,0.0512264231034482,0.005951303,0.0378067596551724
205895109,1.0,-0.6130835000000001,0.46460599,-4.905614,0.094251475,0.1430866,0.0788541,0.0512480818965517,0.005953485,0.0378535453448275
205895109,1.0,-0.6544446666666668,0.4508780384615384,-5.057040051282051,0.0942192146153846,0.1432604512820512,0.0787236279487179,0.0512553014942528,0.0059542123333333,0.0378691405747125
205895109,1.0,-0.6958058333333335,0.4371500869230769,-5.208466102564103,0.0941869542307692,0.1434343025641025,0.0785931558974358,0.0512625210919539,0.0059549396666666,0.0378847358045976
205895109,1.0,-0.7371670000000001,0.4234221353846154,-5.359892153846154,0.0941546938461538,0.1436081538461538,0.0784626838461538,0.0512697406896551,0.0059556669999999,0.0379003310344827
205895109,1.0,-0.7992087500000001,0.402830208076923,-5.587031230769231,0.0941063032692307,0.1438689307692307,0.0782669757692307,0.0512805700862068,0.0059567579999999,0.0379237238793103
205895109,1.0,-0.8612505000000001,0.3822382807692308,-5.814170307692308,0.0940579126923076,0.1441297076923076,0.0780712676923076,0.0512913994827585,0.0059578489999999,0.0379471167241379
205895109,1.0,-0.92329225,0.3616463534615385,-6.041309384615384,0.0940095221153845,0.1443904846153845,0.0778755596153845,0.0513022288793102,0.0059589399999999,0.0379705095689655
205895109,1.0,-0.9853340000000002,0.3410544261538462,-6.268448461538461,0.0939611315384615,0.1446512615384615,0.0776798515384615,0.051313058275862,0.0059600309999999,0.0379939024137931
205895109,1.0,-1.1094175000000002,0.2998705715384615,-6.722726615384615,0.0938643503846153,0.1451728153846153,0.0772884353846153,0.0513347170689655,0.005962213,0.0380406881034482
205895109,1.0,-1.233501,0.2586867169230769,-7.177004769230769,0.0937675692307692,0.1456943692307692,0.0768970192307692,0.0513563758620689,0.005964395,0.0380874737931034
205895109,1.0,-1.729835,0.0939512984615384,-8.994117384615384,0.0933804446153846,0.1477805846153846,0.0753313546153846,0.0514430110344827,0.0059731229999999,0.0382746165517241
205895109,1.0,-1.6057515000000002,0.1351351530769231,-8.53983923076923,0.0934772257692307,0.1472590307692307,0.0757227707692307,0.0514213522413793,0.005970941,0.0382278308620689
205895109,1.0,-1.481668,0.1763190076923076,-8.085561076923078,0.0935740069230769,0.1467374769230769,0.0761141869230769,0.0513996934482758,0.005968759,0.0381810451724137
205895109,1.0,-0.8612505000000001,0.3822382807692308,-5.814170307692307,0.0940579126923076,0.1441297076923076,0.0780712676923076,0.0512913994827586,0.0059578489999999,0.0379471167241379
205895109,1.0,-1.3575845000000002,0.2175028623076923,-7.631282923076923,0.093670788076923,0.146215923076923,0.076505603076923,0.0513780346551724,0.005966577,0.0381342594827586
205895109,1.0,-0.3649165000000001,0.5469736992307692,-3.997057692307692,0.0944450373076923,0.1420434923076923,0.0796369323076923,0.0512047643103448,0.005949121,0.0377599739655172
205895109,1.0,-0.1167495,0.6293414084615385,-3.088501384615384,0.0946385996153846,0.1410003846153846,0.0804197646153846,0.0511614467241379,0.005944757,0.0376664025862069
205895109,1.0,0.1314174999999999,0.7117091176923077,-2.179945076923076,0.0948321619230769,0.1399572769230769,0.0812025969230769,0.051118129137931,0.0059403929999999,0.0375728312068965
205895109,1.0,0.0383548749999999,0.6808212267307693,-2.5206536923076914,0.0947595760576922,0.1403484423076922,0.0809090348076922,0.0511343732327585,0.0059420294999999,0.0376079204741378
205895109,1.0,-0.05470775,0.6499333357692307,-2.861362307692307,0.0946869901923076,0.1407396076923076,0.0806154726923076,0.0511506173275861,0.0059436659999999,0.0376430097413792
205895109,1.0,-0.147770375,0.6190454448076923,-3.2020709230769224,0.094614404326923,0.141130773076923,0.080321910576923,0.0511668614224137,0.0059453024999999,0.0376780990086206
205895109,1.0,-0.240833,0.5881575538461539,-3.542779538461538,0.0945418184615384,0.1415219384615384,0.0800283484615384,0.0511831055172413,0.005946939,0.037713188275862
205895109,1.0,-0.7785281666666666,0.4096941838461538,-5.511318205128204,0.0941224334615384,0.143782005128205,0.0783322117948717,0.0512769602873562,0.0059563943333333,0.0379159262643677
205895109,1.0,-1.3162233333333333,0.2312308138461538,-7.479856871794871,0.0937030484615384,0.1460420717948717,0.076636075128205,0.0513708150574712,0.0059658496666666,0.0381186642528735
205895109,1.0,-1.8539185,0.0527674438461538,-9.448395538461538,0.0932836634615384,0.1483021384615384,0.0749399384615384,0.0514646698275862,0.0059753049999999,0.0383214022413793
205895109,1.0,-1.388605375,0.2072068986538461,-7.744852461538461,0.0936465927884614,0.1463463115384614,0.0764077490384614,0.0513834493534482,0.0059671224999998,0.0381459559051724
205895109,1.0,-0.92329225,0.3616463534615384,-6.041309384615384,0.0940095221153845,0.1443904846153845,0.0778755596153845,0.0513022288793102,0.0059589399999999,0.0379705095689655
205895109,1.0,-0.4579791250000002,0.5160858082692308,-4.337766307692307,0.0943724514423076,0.1424346576923076,0.0793433701923076,0.0512210084051723,0.0059507574999999,0.0377950632327586
205895109,1.0,0.0073339999999997,0.6705252630769231,-2.63422323076923,0.0947353807692307,0.1404788307692307,0.0808111807692307,0.0511397879310344,0.0059425749999999,0.0376196168965517
205895109,1.0,-1.978002,0.0115835892307692,-9.902673692307692,0.0931868823076923,0.1488236923076923,0.0745485223076923,0.0514863286206896,0.005977487,0.0383681879310344
205895109,1.0,0.3795845,0.7940768269230769,-1.271388769230768,0.0950257242307692,0.1389141692307692,0.0819854292307692,0.0510748115517241,0.005936029,0.0374792598275862
205935093,1.0,1.000002,0.9999961,1.000002,0.09706983,0.1354191,0.09494377,0.0503488722580645,0.005880619,0.0362176412903225
205935093,1.0,-2.100608,-0.07536184,-10.89766,0.09726065,0.1354885,0.09518801,0.0502770812903225,0.005875602,0.0361008764516129
205935093,1.0,1.000002,0.9999961,1.000002,0.09706983,0.1354191,0.09494377,0.0502531509677418,0.0058739296666666,0.0360619548387096
205935093,1.0,-2.100608,-0.07536184,-10.89766,0.09726065,0.1354885,0.09518801,0.0502292206451612,0.0058722573333333,0.0360230332258064
205975077,1.0,1.000002,0.9999961,1.000002,0.09954189,0.1402546,0.1070462,0.0502052903225806,0.005870585,0.0359841116129032
205975077,1.0,1.000002,0.9999961,1.000002,0.09954189,0.1402546,0.1070462,0.0501693948387096,0.0058680765,0.0359257291935483
205975077,1.0,-2.044148,-0.08057227,-10.93013,0.09959484,0.1401891,0.1069592,0.0501334993548387,0.005865568,0.0358673467741935
205975077,1.0,-2.044148,-0.08057227,-10.93013,0.09959484,0.1401891,0.1069592,0.0500976038709677,0.0058630594999999,0.0358089643548386
205995069,1.0,-2.0424531142857143,-0.0805537657142857,-10.931239142857144,0.0996376731428571,0.1402172628571428,0.1073408771428571,0.0500617083870967,0.0058605509999999,0.0357505819354838
205995069,1.0,-2.0407582285714283,-0.0805352614285714,-10.932348285714284,0.0996805062857142,0.1402454257142857,0.1077225542857142,0.0499899174193548,0.005855534,0.0356338170967741
205995069,1.0,-2.0390633428571427,-0.0805167571428571,-10.933457428571428,0.0997233394285714,0.1402735885714285,0.1081042314285714,0.0499181264516129,0.0058505169999999,0.0355170522580645
205995069,1.0,-2.037368457142857,-0.0804982528571428,-10.934566571428572,0.0997661725714285,0.1403017514285714,0.1084859085714285,0.0498463354838709,0.0058455,0.0354002874193548
205995069,1.0,-2.035673571428571,-0.0804797485714285,-10.935675714285717,0.0998090057142857,0.1403299142857142,0.1088675857142857,0.049774544516129,0.005840483,0.0352835225806451
205995069,1.0,-2.0339786857142856,-0.0804612442857142,-10.936784857142856,0.0998518388571428,0.1403580771428571,0.1092492628571428,0.049702753548387,0.005835466,0.0351667577419354
205995069,1.0,-2.0322838,-0.08044274,-10.937894,0.099894672,0.14038624,0.10963094,0.0496309625806451,0.005830449,0.0350499929032258
205995069,1.0,-2.030588914285714,-0.0804242357142857,-10.939003142857144,0.0999375051428571,0.1404144028571428,0.1100126171428571,0.0495591716129032,0.005825432,0.0349332280645161
205995069,1.0,-2.0288940285714285,-0.0804057314285714,-10.940112285714283,0.0999803382857142,0.1404425657142857,0.1103942942857142,0.0494873806451612,0.005820415,0.0348164632258064
205995069,1.0,-2.0271991428571425,-0.0803872271428571,-10.941221428571428,0.1000231714285714,0.1404707285714286,0.1107759714285714,0.0494155896774193,0.0058153979999999,0.0346996983870967
205995069,1.0,-2.027104982539682,-0.0803861991269841,-10.941283047619049,0.100025551047619,0.1404722931746032,0.1107971757142856,0.0494116012903225,0.0058151192777776,0.0346932114516128
205995069,1.0,-2.027010822222222,-0.080385171111111,-10.941344666666666,0.1000279306666666,0.1404738577777778,0.1108183799999999,0.0494076129032257,0.0058148405555554,0.0346867245161289
205995069,1.0,-2.0269166619047616,-0.080384143095238,-10.941406285714285,0.1000303102857142,0.1404754223809524,0.1108395842857142,0.0494036245161289,0.0058145618333332,0.034680237580645
205995069,1.0,-2.026822501587301,-0.080383115079365,-10.941467904761904,0.1000326899047618,0.140476986984127,0.1108607885714285,0.0493996361290322,0.005814283111111,0.0346737506451612
205995069,1.0,-2.026728341269841,-0.080382087063492,-10.941529523809525,0.1000350695238094,0.1404785515873015,0.1108819928571428,0.0493956477419354,0.0058140043888888,0.0346672637096773
205995069,1.0,-2.0266341809523807,-0.080381059047619,-10.941591142857142,0.1000374491428571,0.1404801161904761,0.1109031971428571,0.0493916593548386,0.0058137256666666,0.0346607767741934
205995069,1.0,-2.02654002063492,-0.0803800310317459,-10.94165276190476,0.1000398287619047,0.1404816807936507,0.1109244014285713,0.0493876709677418,0.0058134469444443,0.0346542898387095
205995069,1.0,-2.02644586031746,-0.0803790030158729,-10.94171438095238,0.1000422083809523,0.1404832453968253,0.1109456057142856,0.0493836825806451,0.0058131682222221,0.0346478029032257
205995069,1.0,-2.0263517,-0.0803779749999999,-10.941776,0.1000445879999999,0.14048481,0.1109668099999999,0.0493796941935483,0.0058128894999999,0.0346413159677418
205995069,1.0,-2.02625753968254,-0.0803769469841269,-10.94183761904762,0.1000469676190475,0.1404863746031746,0.1109880142857142,0.0493757058064515,0.0058126107777777,0.0346348290322579
205995069,1.0,-2.02616337936508,-0.0803759189682539,-10.94189923809524,0.1000493472380951,0.1404879392063492,0.1110092185714285,0.0493717174193548,0.0058123320555555,0.0346283420967741
205995069,1.0,-2.026069219047619,-0.0803748909523809,-10.941960857142858,0.1000517268571428,0.1404895038095238,0.1110304228571428,0.049367729032258,0.0058120533333332,0.0346218551612902
205995069,1.0,-2.0259750587301584,-0.0803738629365078,-10.942022476190475,0.1000541064761904,0.1404910684126984,0.111051627142857,0.0493637406451612,0.005811774611111,0.0346153682258063
205995069,1.0,-2.0258808984126984,-0.0803728349206348,-10.942084095238096,0.100056486095238,0.1404926330158729,0.1110728314285713,0.0493597522580644,0.0058114958888888,0.0346088812903224
205995069,1.0,-2.025786738095238,-0.0803718069047618,-10.942145714285717,0.1000588657142856,0.1404941976190475,0.1110940357142856,0.0493557638709677,0.0058112171666666,0.0346023943548386
205995069,1.0,-2.025692577777777,-0.0803707788888888,-10.942207333333334,0.1000612453333332,0.1404957622222221,0.1111152399999999,0.0493517754838709,0.0058109384444444,0.0345959074193547
205995069,1.0,-2.025598417460317,-0.0803697508730158,-10.942268952380951,0.1000636249523808,0.1404973268253967,0.1111364442857142,0.0493477870967741,0.0058106597222222,0.0345894204838708
205995069,1.0,-2.025504257142857,-0.0803687228571428,-10.942330571428572,0.1000660045714285,0.1404988914285714,0.1111576485714285,0.0493437987096774,0.005810381,0.034582933548387
205995069,1.0,-2.0238093714285714,-0.0803502185714285,-10.943439714285716,0.1001088377142857,0.1405270542857143,0.1115393257142857,0.0492720077419354,0.0058053639999999,0.0344661687096774
205995069,1.0,-1.9916065428571428,-0.0799986371428571,-10.964513428571427,0.1009226674285714,0.1410621485714285,0.1187911914285714,0.04799108,0.005997343,0.0325136
205995069,1.0,-2.0204196,-0.08031321,-10.945658,0.100194504,0.14058338,0.11230268,0.0491284258064516,0.00579533,0.034232639032258
205995069,1.0,-1.9882167714285712,-0.0799616285714285,-10.966731714285714,0.1010083337142857,0.1411184742857142,0.1195545457142857,0.0478626072727272,0.0060395457272727,0.0323284272727272
205995069,1.0,-1.9865218857142857,-0.0799431242857142,-10.967840857142855,0.1010511668571428,0.1411466371428571,0.1199362228571428,0.0477983709090909,0.006060647090909,0.0322358409090909
205995069,1.0,-2.022114485714285,-0.0803317142857142,-10.944548857142856,0.1001516708571428,0.1405552171428571,0.1119210028571428,0.0492002167741935,0.005800347,0.0343494038709677
205995069,1.0,-2.01567392,-0.0802613979999999,-10.9487636,0.1003144367999999,0.1406622359999999,0.1133713759999999,0.0489455421466275,0.0058439664727272,0.0339637258240468
205995069,1.0,-2.0092333542857137,-0.0801910817142856,-10.952978342857142,0.100477202742857,0.1407692548571428,0.114821749142857,0.0486908675190615,0.0058875859454545,0.033578047777126
205995069,1.0,-2.002792788571428,-0.0801207654285713,-10.957193085714286,0.1006399686857142,0.1408762737142856,0.1162721222857142,0.0484361928914955,0.0059312054181817,0.0331923697302052
205995069,1.0,-1.9963522228571424,-0.080050449142857,-10.961407828571428,0.1008027346285713,0.1409832925714285,0.1177224954285713,0.0481815182639295,0.005974824890909,0.0328066916832844
205995069,1.0,-1.989911657142857,-0.0799801328571428,-10.965622571428572,0.1009655005714285,0.1410903114285714,0.1191728685714285,0.0479268436363636,0.0060184443636363,0.0324210136363636
205995069,1.0,-1.9903353785714284,-0.0799847589285713,-10.965345285714283,0.1009547922857142,0.1410832707142856,0.1190774492857142,0.0480039272727272,0.0059931227272726,0.0325321172727272
205995069,1.0,-1.9907591,-0.0799893849999999,-10.965068,0.1009440839999999,0.1410762299999999,0.1189820299999999,0.0480810109090908,0.005967801090909,0.0326432209090908
205995069,1.0,-1.9911828214285712,-0.0799940110714285,-10.964790714285714,0.1009333757142856,0.1410691892857142,0.1188866107142856,0.0481580945454545,0.0059424794545454,0.0327543245454545
205995069,1.0,-1.9916065428571423,-0.0799986371428571,-10.96451342857143,0.1009226674285713,0.1410621485714285,0.1187911914285713,0.0482351781818181,0.0059171578181817,0.0328654281818181
205995069,1.0,-1.992030264285714,-0.0800032632142856,-10.964236142857144,0.100911959142857,0.1410551078571428,0.118695772142857,0.0483122618181817,0.0058918361818181,0.0329765318181818
205995069,1.0,-1.9924539857142856,-0.0800078892857142,-10.963958857142856,0.1009012508571428,0.1410480671428571,0.1186003528571428,0.0483893454545454,0.0058665145454545,0.0330876354545454
205995069,1.0,-1.992877707142857,-0.0800125153571428,-10.963681571428571,0.1008905425714285,0.1410410264285714,0.1185049335714285,0.048466429090909,0.0058411929090908,0.033198739090909
205995069,1.0,-1.9933014285714283,-0.0800171414285714,-10.963404285714285,0.1008798342857142,0.1410339857142856,0.1184095142857142,0.0485435127272727,0.0058158712727272,0.0333098427272727
205995069,1.0,-1.99372515,-0.0800217674999999,-10.963127,0.1008691259999999,0.1410269449999999,0.1183140949999999,0.0486205963636363,0.0057905496363636,0.0334209463636363
205995069,1.0,-1.9941488714285711,-0.0800263935714285,-10.962849714285714,0.1008584177142856,0.1410199042857142,0.1182186757142856,0.04869768,0.005765228,0.03353205
205995069,1.0,-1.9945725928571425,-0.0800310196428571,-10.962572428571429,0.1008477094285713,0.1410128635714285,0.1181232564285713,0.0484086163636363,0.0058601841363636,0.0331154113636363
205995069,1.0,-1.994996314285714,-0.0800356457142857,-10.962295142857142,0.1008370011428571,0.1410058228571428,0.1180278371428571,0.0481195527272727,0.0059551402727272,0.0326987727272727
205995069,1.0,-2.0187247142857143,-0.0802947057142857,-10.946767142857142,0.1002373371428571,0.1406115428571428,0.1126843571428571,0.0490566348387096,0.005790313,0.0341158741935483
205995069,1.0,-2.0170298285714283,-0.0802762014285714,-10.947876285714283,0.1002801702857142,0.1406397057142857,0.1130660342857143,0.0489848438709677,0.005785296,0.0339991093548387
205995069,1.0,-2.0153349428571428,-0.0802576971428571,-10.948985428571428,0.1003230034285714,0.1406678685714285,0.1134477114285714,0.0489130529032258,0.005780279,0.033882344516129
205995069,1.0,-2.013640057142857,-0.0802391928571428,-10.950094571428572,0.1003658365714285,0.1406960314285714,0.1138293885714285,0.0488412619354838,0.005775262,0.0337655796774193
205995069,1.0,-2.011945171428571,-0.0802206885714285,-10.951203714285716,0.1004086697142857,0.1407241942857142,0.1142110657142857,0.0487694709677419,0.005770245,0.0336488148387096
205995069,1.0,-2.0102502857142857,-0.0802021842857142,-10.952312857142855,0.1004515028571428,0.1407523571428571,0.1145927428571428,0.04869768,0.005765228,0.03353205
205995069,1.0,-2.0085554,-0.08018368,-10.953422,0.100494336,0.14078052,0.11497442,0.0486334436363636,0.0057863293636363,0.0334394636363636
205995069,1.0,-2.006860514285714,-0.0801651757142857,-10.954531142857142,0.1005371691428571,0.1408086828571428,0.1153560971428571,0.0485692072727272,0.0058074307272727,0.0333468772727272
205995069,1.0,-2.0051656285714285,-0.0801466714285714,-10.955640285714283,0.1005800022857142,0.1408368457142857,0.1157377742857142,0.0485049709090909,0.005828532090909,0.0332542909090909
205995069,1.0,-2.0034707428571426,-0.0801281671428571,-10.956749428571428,0.1006228354285714,0.1408650085714285,0.1161194514285714,0.0484407345454545,0.0058496334545454,0.0331617045454545
205995069,1.0,-2.001775857142857,-0.0801096628571428,-10.957858571428572,0.1006656685714285,0.1408931714285714,0.1165011285714285,0.0483764981818181,0.0058707348181818,0.0330691181818181
205995069,1.0,-1.9933014285714288,-0.0800171414285714,-10.963404285714285,0.1008798342857142,0.1410339857142857,0.1184095142857142,0.0480553163636363,0.0059762416363636,0.0326061863636363
205995069,1.0,-1.9983860857142857,-0.0800726542857142,-10.960076857142855,0.1007513348571428,0.1409494971428571,0.1172644828571428,0.0482480254545454,0.0059129375454545,0.0328839454545454
205995069,1.0,-2.0000809714285714,-0.0800911585714285,-10.958967714285714,0.1007085017142857,0.1409213342857142,0.1168828057142857,0.0483122618181818,0.0058918361818181,0.0329765318181818
205995069,1.0,-1.998951047619048,-0.0800788223809523,-10.959707142857145,0.1007370571428571,0.1409401095238094,0.1171372571428571,0.0482694375757575,0.0059059037575757,0.0329148075757575
205995069,1.0,-1.997821123809524,-0.0800664861904761,-10.960446571428571,0.1007656125714285,0.1409588847619047,0.1173917085714285,0.0482266133333332,0.0059199713333333,0.0328530833333332
205995069,1.0,-1.9966912,-0.08005415,-10.961186,0.100794168,0.14097766,0.11764616,0.048183789090909,0.0059340389090909,0.032791359090909
206015061,1.0,-1.984827,-0.07992462,-10.96895,0.101094,0.1411748,0.1203179,0.0480339042424241,0.0059832754242424,0.0325753242424241
206015061,1.0,1.000002,0.9999961,1.000002,0.1011722,0.1410711,0.119821,0.0478840193939393,0.0060325119393939,0.0323592893939393
206015061,1.0,-1.984827,-0.07992462,-10.96895,0.101094,0.1411748,0.1203179,0.0477341345454545,0.0060817484545454,0.0321432545454545
206015061,1.0,1.000002,0.9999961,1.000002,0.1011722,0.1410711,0.119821,0.0476698981818181,0.0061028498181818,0.0320506681818181
206055045,1.0,-1.929331,-0.08123307,-11.01325,0.09942944,0.1467667,0.1338253,0.0476270739393938,0.0061169173939393,0.0319889439393938
206055045,1.0,1.000002,0.9999961,1.000002,0.09933964,0.1467811,0.1337889,0.0475842496969696,0.0061309849696969,0.0319272196969696
206055045,1.0,-1.929331,-0.08123307,-11.01325,0.09942944,0.1467667,0.1338253,0.0475414254545454,0.0061450525454545,0.0318654954545454
206055045,1.0,1.000002,0.9999961,1.000002,0.09933964,0.1467811,0.1337889,0.0476056618181818,0.0061239511818181,0.0319580818181818
206095029,1.0,0.5903431428571428,0.84516168,-0.721016857142857,0.0993273171428571,0.1474646,0.1358978142857142,0.0475835331875962,0.0061301672922765,0.031928506206664
206095029,1.0,0.1806842857142857,0.6903272600000001,-2.442035714285714,0.0993149942857142,0.1481481,0.1380067285714285,0.0475614045570107,0.0061363834027349,0.0318989305951463
206095029,1.0,-0.2289745714285713,0.5354928400000001,-4.163054571428571,0.0993026714285714,0.1488316,0.1401156428571428,0.0475392759264252,0.0061425995131933,0.0318693549836286
206095029,1.0,-0.6386334285714286,0.38065842,-5.884073428571428,0.0992903485714285,0.1495150999999999,0.1422245571428571,0.0475171472958397,0.0061488156236517,0.0318397793721109
206095029,1.0,-1.0482922857142858,0.225824,-7.605092285714285,0.0992780257142857,0.1501986,0.1443334714285714,0.0474950186652542,0.0061550317341101,0.0318102037605932
206095029,1.0,-1.4579511428571428,0.0709895800000001,-9.326111142857142,0.0992657028571428,0.1508821,0.1464423857142857,0.0474728900346686,0.0061612478445685,0.0317806281490754
206095029,1.0,-1.86761,-0.08384484,-11.04713,0.09925338,0.1515656,0.1485513,0.0474507614040831,0.0061674639550269,0.0317510525375577
206095029,1.0,-1.2940876,0.132923348,-8.637703599999998,0.099261654,0.1515615599999999,0.1485718,0.0474286327734976,0.0061736800654853,0.03172147692604
206095029,1.0,-0.7205651999999998,0.349691536,-6.228277199999999,0.099269928,0.15155752,0.1485923,0.0474065041429121,0.0061798961759437,0.0316919013145223
206095029,1.0,-0.1470427999999997,0.566459724,-3.818850799999999,0.099278202,0.15155348,0.1486128,0.0473843755123266,0.0061861122864021,0.0316623257030046
206095029,1.0,0.4264796000000004,0.783227912,-1.409424399999999,0.099286476,0.15154944,0.1486333,0.047362246881741,0.0061923283968605,0.0316327500914868
206095029,1.0,1.000002,0.9999961,1.000002,0.09929475,0.1515454,0.1486538,0.0473401182511555,0.0061985445073189,0.0316031744799691
206095029,1.0,0.478618,0.802934110909091,-1.1903856363636365,0.0992872281818181,0.1515490727272727,0.1486351636363636,0.04731798962057,0.0062047606177773,0.0315735988684514
206095029,1.0,-0.042766,0.6058721218181818,-3.3807732727272723,0.0992797063636363,0.1515527454545454,0.1486165272727272,0.0472958609899845,0.0062109767282357,0.0315440232569337
206095029,1.0,-0.5641500000000002,0.4088101327272727,-5.571160909090908,0.0992721845454545,0.1515564181818181,0.1485978909090908,0.047273732359399,0.0062171928386941,0.031514447645416
206095029,1.0,-1.085534,0.2117481436363636,-7.761548545454545,0.0992646627272727,0.1515600909090909,0.1485792545454545,0.0472516037288135,0.0062234089491525,0.0314848720338983
206095029,1.0,-0.9387628181818184,0.2609220522727273,-7.225142090909091,0.0993519368181818,0.1503424772727272,0.1537800136363636,0.0468899647457626,0.0061568693898304,0.0313718144067796
206095029,1.0,-0.7919916363636366,0.310095960909091,-6.688735636363637,0.0994392109090909,0.1491248636363636,0.1589807727272727,0.0465283257627118,0.0060903298305084,0.031258756779661
206095029,1.0,-0.919991181818182,0.2608173795454546,-7.237931181818183,0.0994495295454545,0.1489519681818182,0.1597184136363636,0.0464954494915254,0.006084280779661,0.0312484788135593
206095029,1.0,-1.0479907272727276,0.2115387981818182,-7.787126727272728,0.0994598481818181,0.1487790727272727,0.1604560545454545,0.0464625732203389,0.0060782317288135,0.0312382008474576
206095029,1.0,-1.175990272727273,0.1622602168181818,-8.336322272727273,0.0994701668181818,0.1486061772727272,0.1611936954545454,0.0464296969491525,0.0060721826779661,0.0312279228813559
206095029,1.0,-1.3039898181818186,0.1129816354545454,-8.88551781818182,0.0994804854545454,0.1484332818181818,0.1619313363636363,0.0463968206779661,0.0060661336271186,0.0312176449152542
206095029,1.0,-1.431989363636364,0.0637030540909091,-9.434713363636364,0.099490804090909,0.1482603863636363,0.1626689772727272,0.0463639444067796,0.0060600845762711,0.0312073669491525
206095029,1.0,-1.5599889090909096,0.0144244727272726,-9.98390890909091,0.0995011227272726,0.1480874909090908,0.1634066181818181,0.0463310681355931,0.0060540355254236,0.0311970889830508
206095029,1.0,-1.687988454545455,-0.0348541086363637,-10.533104454545455,0.0995114413636363,0.1479145954545454,0.1641442590909091,0.0462981918644067,0.0060479864745762,0.0311868110169491
