Time,IMU_I,IMU_GyrX,IMU_GyrY,IMU_GyrZ,IMU_AccX,IMU_AccY,IMU_AccZ,IMU_EG,IMU_EA,IMU_T,IMU_GH,IMU_AH,IMU_GHz,IMU_AHz
 1214358229, 0, 0.0001349294, 0.0002026198, 0.0001767055, -0.001235811, -0.001339792, -9.816755, 0, 0, 44.64877, 1, 1, 999, 999
 1214358229, 1, -1.691369E-05, 0.0003330094, 0.0001251165, -0.0002384058, -9.604955E-05, -9.815781, 0, 0, 44.64877, 1, 1, 760, 800
 1214398213, 0, 0.0001883437, 0.0001995677, 0.0002039531, -0.0002816965, -0.001107399, -9.81756, 0, 0, 44.64882, 1, 1, 999, 999
 1214398213, 1, 0.000169784, 0.0002094129, 8.560261E-05, 0.0001718153, -0.0007060321, -9.817885, 0, 0, 44.64882, 1, 1, 760, 800
 1214438197, 0, 0.0001722468, 0.0001715004, 0.0001938705, -0.0005516476, -0.001372292, -9.817329, 0, 0, 44.64887, 1, 1, 999, 999
 1214438197, 1, 0.0002985023, -4.703465E-06, 0.0001060317, -0.002256984, 0.0005090894, -9.819988, 0, 0, 44.64887, 1, 1, 760, 800
 1214478181, 0, 0.000264913, 0.0001343956, 0.0002143607, -0.0001846943, -0.0007999478, -9.81806, 0, 0, 44.64891, 1, 1, 1000, 1000
 1214478181, 1, 0.0003231844, 0.0002379579, 0.0001382247, -0.0005708503, -0.001669102, -9.817956, 0, 0, 44.64891, 1, 1, 760, 800
 1214518165, 0, 0.0002011369, 9.962128E-05, 0.0001694311, -0.000523171, -0.001441928, -9.81696, 0, 0, 44.64896, 1, 1, 1000, 1000
 1214518165, 1, 0.0003006053, 3.963264E-05, 0.0002635195, 0.0002646208, -0.0008803917, -9.81742, 0, 0, 44.64896, 1, 1, 760, 800
 1214558149, 0, 0.0002102584, 0.0002720812, 0.0002136331, -0.001332505, -0.001810333, -9.817917, 0, 0, 44.64901, 1, 1, 1000, 1000
 1214558149, 1, 0.0002511999, 0.0005910853, 0.0003445635, -0.003092264, -0.0009590019, -9.81591, 0, 0, 44.64901, 1, 1, 760, 800
 1214598133, 0, 0.0001844128, 0.0002438414, 0.0001251731, -0.002032823, -0.001125898, -9.816652, 0, 0, 44.64906, 1, 1, 1000, 1000
 1214598133, 1, 9.394317E-05, 0.0004399815, 0.0001648017, 8.206115E-05, -0.0005208758, -9.817163, 0, 0, 44.64906, 1, 1, 760, 800
 1214638117, 0, 0.0001728932, 0.0001685052, 0.0001023083, -0.0009390166, -0.0004479404, -9.817013, 0, 0, 44.6491, 1, 1, 1000, 1000
 1214638117, 1, 6.141909E-06, 0.0003647332, 0.0001068423, -0.0004036432, -0.002757025, -9.819313, 0, 0, 44.6491, 1, 1, 760, 800
 1214678101, 0, 0.0002065799, 0.0002338329, 0.0001626121, -0.001674566, -0.001676783, -9.816572, 0, 0, 44.64915, 1, 1, 1000, 1000
 1214678101, 1, 0.0003863836, 0.00033478, 0.0003158688, -0.0003072451, -0.00157337, -9.817705, 0, 0, 44.64915, 1, 1, 760, 800
 1214718085, 0, 0.0002995623, 0.0002566694, 0.0002214776, -0.001108289, -0.001013932, -9.81674, 0, 0, 44.6492, 1, 1, 1000, 1000
 1214718085, 1, 2.465813E-05, 0.000337012, 0.0002439694, -8.41397E-05, -0.001270483, -9.817011, 0, 0, 44.6492, 1, 1, 760, 800
 1214758069, 0, 0.0002161797, 0.0001165155, 0.0001468004, -0.001028837, -0.000659663, -9.817739, 0, 0, 44.64924, 1, 1, 1000, 1000
 1214758069, 1, 0.0001876896, 0.0003155944, 0.0004451657, -0.0002979464, 0.0003431789, -9.81797, 0, 0, 44.64924, 1, 1, 760, 800
 1214798053, 0, 0.0002078813, 0.0002077733, 0.0002374569, -0.002011795, -0.0001984419, -9.818362, 0, 0, 44.64929, 1, 1, 1000, 1000
 1214798053, 1, 0.0002202387, 0.0003003276, -3.132167E-05, -0.001591021, -0.0004181323, -9.817172, 0, 0, 44.64929, 1, 1, 760, 800
 1214838037, 0, 0.0001974422, 0.0001710849, 0.0002450299, 4.850014E-05, -0.002191097, -9.817739, 0, 0, 44.64933, 1, 1, 1000, 1000
 1214838037, 1, -4.277066E-05, -4.179011E-05, 0.0002647844, -0.001357585, -0.001153145, -9.818335, 0, 0, 44.64934, 1, 1, 760, 800
 1214878021, 0, 0.0001064968, 0.0001602624, 0.0001693277, -0.001332376, -0.001272823, -9.817579, 0, 0, 44.64938, 1, 1, 1000, 1000
 1214878021, 1, 0.0004111738, 0.0004511572, 0.0004422723, -0.002514917, -0.0002134604, -9.816485, 0, 0, 44.64938, 1, 1, 760, 800
 1214918005, 0, 0.0001732044, 0.000246996, 0.0002404609, -0.001683316, -0.00153974, -9.818069, 0, 0, 44.64943, 1, 1, 1000, 1000
 1214918005, 1, 0.0001549969, 6.034616E-05, 0.0002830169, -0.002675242, 0.0006639219, -9.817287, 0, 0, 44.64943, 1, 1, 760, 800
 1214957989, 0, 0.0001511378, 0.0001861007, 0.0002429239, -0.001114791, -0.0009809311, -9.818711, 0, 0, 44.64948, 1, 1, 1000, 1000
 1214957989, 1, 8.458498E-05, 0.0001688912, 0.000132536, -0.002429317, -0.00221577, -9.816854, 0, 0, 44.64948, 1, 1, 760, 800
 1214997973, 0, 0.0002276278, 0.0002783117, 0.0002445471, -0.000489472, -0.0009231204, -9.817649, 0, 0, 44.64952, 1, 1, 1000, 1000
 1214997973, 1, 0.0001667765, 0.0002734337, 2.747901E-05, 0.0006272921, -0.0002254056, -9.818082, 0, 0, 44.64952, 1, 1, 760, 800
 1215037957, 0, 0.0001968375, 0.0001869626, 0.0001236753, -0.0006104517, -0.0008230933, -9.816917, 0, 0, 44.64957, 1, 1, 1000, 1000
 1215037957, 1, -2.32879E-05, 0.0004583934, 0.0001733135, 0.002057886, -0.0002883828, -9.819122, 0, 0, 44.64957, 1, 1, 760, 800
 1215077941, 0, 0.0002236958, 0.0003008406, 0.000173881, -0.001210999, -0.001359213, -9.817912, 0, 0, 44.64962, 1, 1, 1000, 1000
 1215077941, 1, 0.0003183543, 0.0002560737, 0.0001180781, -0.001373813, -3.549099E-05, -9.818041, 0, 0, 44.64962, 1, 1, 760, 800
 1215117925, 0, 0.0002390483, 0.0001798635, 0.0001963999, -0.0009959878, -0.002019748, -9.818365, 0, 0, 44.64966, 1, 1, 1000, 1000
 1215117925, 1, 0.0002030943, 0.0002977471, 8.788525E-05, 0.0006020816, -0.0004053838, -9.81917, 0, 0, 44.64966, 1, 1, 760, 800
 1215157909, 0, 0.0003037204, 0.0001802489, 0.0002450389, 0.0004076987, -0.0007527937, -9.817096, 0, 0, 44.64971, 1, 1, 1000, 1000
 1215157909, 1, 0.0002373024, 0.0005121047, 2.690029E-05, -0.002753923, 0.00066894, -9.817686, 0, 0, 44.64971, 1, 1, 760, 800
 1215197893, 0, 0.0002165802, 0.000195496, 0.000136009, -0.001851838, -0.002324549, -9.817274, 0, 0, 44.64976, 1, 1, 1000, 1000
 1215197893, 1, 0.0002459734, 0.0001056514, 0.0004496679, 0.001102664, -0.002027385, -9.818863, 0, 0, 44.64976, 1, 1, 760, 800
 1215237877, 0, 0.0001215831, 0.0001915407, 0.0001269299, -0.0009943941, -0.000484512, -9.817137, 0, 0, 44.6498, 1, 1, 1000, 1000
 1215237877, 1, 0.0003213391, 0.0006436276, -2.719651E-06, 0.0002047776, -0.0002388318, -9.817636, 0, 0, 44.6498, 1, 1, 760, 800
 1215277861, 0, 0.0001957869, 0.000210679, 0.000203435, 0.0002061473, 0.0006214683, -9.817365, 0, 0, 44.64985, 1, 1, 1000, 1000
 1215277861, 1, 0.0002066003, 0.0003648721, 0.0003209044, -0.0006244142, -9.876272E-06, -9.81686, 0, 0, 44.64985, 1, 1, 760, 800
 1215317845, 0, 0.0001954251, 0.0002225931, 0.0001136753, -0.0005530182, -0.0006171199, -9.81708, 0, 0, 44.64989, 1, 1, 1000, 1000
 1215317845, 1, 0.0002276044, 0.0004591148, 0.0003512159, -0.001518534, -0.0007939439, -9.820273, 0, 0, 44.64989, 1, 1, 760, 800
 1215357829, 0, 0.0001591705, 0.0002183866, 0.0002099417, -0.0003208071, -0.0006141377, -9.817479, 0, 0, 44.64994, 1, 1, 1000, 1000
 1215357829, 1, 0.000115567, 0.0003248909, 0.0002458567, -0.002259868, -0.004020073, -9.816673, 0, 0, 44.64994, 1, 1, 760, 800
 1215397813, 0, 0.0001829483, 0.0001931608, 0.000211193, -0.001121229, -0.0005183658, -9.818302, 0, 0, 44.64999, 1, 1, 1000, 1000
 1215397813, 1, 5.403912E-05, 0.0002975092, 0.000330341, -0.001480937, -0.001731979, -9.818745, 0, 0, 44.64999, 1, 1, 760, 800
 1215437797, 0, 0.0002286542, 0.0001801248, 0.0002185157, -0.0001504745, -0.0009886317, -9.817487, 0, 0, 44.65004, 1, 1, 1000, 1000
 1215437797, 1, -5.997575E-05, 3.928229E-05, 0.0002336685, -0.002062642, -0.002981064, -9.815621, 0, 0, 44.65004, 1, 1, 760, 800
 1215477781, 0, 0.0001875411, 0.0002093909, 0.0002214691, -0.00120622, -0.001474309, -9.817802, 0, 0, 44.65008, 1, 1, 999, 999
 1215477781, 1, 0.0001915679, 0.0003409662, 0.0002935973, -0.001465182, -0.001101843, -9.817756, 0, 0, 44.65008, 1, 1, 760, 800
 1215517765, 0, 0.0003089433, 0.0002416908, 0.0001948575, -0.001840103, -0.001586877, -9.817524, 0, 0, 44.65013, 1, 1, 999, 999
 1215517765, 1, -2.831433E-05, 0.0002180114, 0.000413004, -0.0004003229, -0.003170989, -9.816694, 0, 0, 44.65013, 1, 1, 760, 800
 1215557749, 0, 0.0002378818, 0.0002264198, 0.0002109373, -0.001060982, -0.001268512, -9.817852, 0, 0, 44.65018, 1, 1, 999, 999
 1215557749, 1, 0.0002839164, 0.0002241996, 7.862091E-05, -0.00205252, -0.000670403, -9.818878, 0, 0, 44.65018, 1, 1, 760, 800
 1215597733, 0, 0.0002137672, 0.0001567397, 0.000170741, -0.001400721, -0.0005664921, -9.817059, 0, 0, 44.65022, 1, 1, 999, 999
 1215597733, 1, 0.0001432817, 0.0004679052, -1.001002E-05, -0.0005239736, -0.001706376, -9.818542, 0, 0, 44.65022, 1, 1, 760, 800
 1215637717, 0, 0.0002357999, 0.000216889, 0.0002678132, 0.0005169899, -0.001630747, -9.817312, 0, 0, 44.65027, 1, 1, 999, 999
 1215637717, 1, 8.085445E-05, 0.0003383146, 0.0002069905, -0.002291855, -0.0006015084, -9.815366, 0, 0, 44.65027, 1, 1, 760, 800
 1215677701, 0, 0.0002788076, 0.0002653741, 0.0002084571, -0.0001836885, -0.001044528, -9.817692, 0, 0, 44.65031, 1, 1, 999, 999
 1215677701, 1, 0.0003775702, 0.0004526731, 0.0001963904, -0.001216297, 0.0007931921, -9.815228, 0, 0, 44.65031, 1, 1, 760, 800
 1215717685, 0, 0.0002328184, 0.0002795474, 0.0001385313, -0.000914489, -0.002242333, -9.817359, 0, 0, 44.65036, 1, 1, 999, 999
 1215717685, 1, 0.0004001714, 0.0004895863, 5.482629E-05, 0.0004173866, -0.00136358, -9.817492, 0, 0, 44.65036, 1, 1, 760, 800
 1215757669, 0, 0.0002380582, 0.0002058369, 0.0002977029, -0.001748568, 0.0001199933, -9.817225, 0, 0, 44.65041, 1, 1, 999, 999
 1215757669, 1, 0.0004522345, 0.0001236244, -5.618842E-06, -0.001491323, -0.0006163737, -9.817795, 0, 0, 44.65041, 1, 1, 760, 800
 1215797653, 0, 0.0002462327, 0.0001850271, 0.000236268, -0.0011532, -0.001254703, -9.817088, 0, 0, 44.65046, 1, 1, 999, 999
 1215797653, 1, -0.0001607335, 0.0002917493, 0.000267537, -0.001758008, -0.002865868, -9.818336, 0, 0, 44.65046, 1, 1, 760, 800
 1215837637, 0, 0.0001492929, 0.0002200094, 0.0001911858, -0.0001469199, -0.001305344, -9.817407, 0, 0, 44.6505, 1, 1, 999, 999
 1215837637, 1, 0.0002704458, 0.000227778, 0.0004879826, -0.0008393901, -0.002654174, -9.820394, 0, 0, 44.6505, 1, 1, 760, 800
 1215877621, 0, 0.0001846927, 0.0001398184, 0.0001944881, -0.001548444, -0.001348061, -9.817354, 0, 0, 44.65055, 1, 1, 999, 999
 1215877621, 1, 0.0003512017, 0.0003846138, 0.0003952472, -8.333303E-05, -0.001191673, -9.814778, 0, 0, 44.65055, 1, 1, 760, 800
 1215917605, 0, 0.0001980471, 0.0002430698, 0.0001747669, -0.0007648725, -0.001574693, -9.817709, 0, 0, 44.6506, 1, 1, 999, 999
 1215917605, 1, 0.0004146221, 0.0003138853, 4.671034E-05, -0.002713974, -0.001180023, -9.818438, 0, 0, 44.65059, 1, 1, 760, 800
 1215957589, 0, 0.0002339848, 0.0002009976, 0.0001970874, -0.0008767647, -0.0009925761, -9.818025, 0, 0, 44.65064, 1, 1, 999, 999
 1215957589, 1, 0.000105727, 0.0003513602, 0.0001847554, -0.001492313, -0.002448769, -9.819092, 0, 0, 44.65064, 1, 1, 760, 800
 1215997573, 0, 0.000180943, 0.0002360623, 0.0001297501, -0.000904305, -0.0007777119, -9.818695, 0, 0, 44.65069, 1, 1, 999, 999
 1215997573, 1, 0.0003114171, 0.000207907, 0.000260327, -0.0005885497, 0.0005495475, -9.816505, 0, 0, 44.65069, 1, 1, 760, 800
 1216037557, 0, 0.0001398108, 0.0002017846, 0.0002099106, -0.0006567852, -0.0002886763, -9.817481, 0, 0, 44.65073, 1, 1, 999, 999
 1216037557, 1, 0.0001494221, 0.0002762347, 0.0003126291, -7.854307E-05, -0.004424369, -9.817422, 0, 0, 44.65073, 1, 1, 760, 800
 1216077541, 0, 0.0002629299, 0.0002458036, 0.0002351226, -0.001412129, -0.001078391, -9.81742, 0, 0, 44.65078, 1, 1, 999, 999
 1216077541, 1, 0.0002115979, -2.20202E-05, 0.0002819118, 0.001084693, -0.001009826, -9.817556, 0, 0, 44.65078, 1, 1, 760, 800
 1216117525, 0, 0.0001573203, 0.0001998182, 0.0001632675, -0.0006982862, -0.0004392316, -9.81781, 0, 0, 44.65083, 1, 1, 999, 999
 1216117525, 1, 0.0002679777, 0.0002391022, 0.0001845151, -0.002125063, 0.001443413, -9.819566, 0, 0, 44.65083, 1, 1, 760, 800
 1216157509, 0, 0.00020944, 0.0001661989, 0.0002624076, -0.0004490355, -0.001355303, -9.817429, 0, 0, 44.65088, 1, 1, 999, 999
 1216157509, 1, 0.0002149396, 0.0003652025, 2.61026E-05, -0.001180029, -0.0008485687, -9.819107, 0, 0, 44.65088, 1, 1, 760, 800
 1216197493, 0, 0.0002249177, 0.0002437558, 0.0001646361, -0.000205382, -0.001448213, -9.81786, 0, 0, 44.65092, 1, 1, 999, 999
 1216197493, 1, 0.0002871421, 0.0003422888, 0.0001830706, -0.002151339, -0.0009568939, -9.814631, 0, 0, 44.65092, 1, 1, 760, 800
 1216237477, 0, 0.0002284668, 0.0001879868, 0.0002055065, -0.0004300894, -0.002368703, -9.817522, 0, 0, 44.65097, 1, 1, 999, 999
 1216237477, 1, 7.857845E-05, 8.34977E-05, 7.634678E-05, -0.003157707, 0.0007987197, -9.818125, 0, 0, 44.65097, 1, 1, 760, 799
 1216277461, 0, 0.000190715, 0.0001638205, 0.0002417862, -0.001215808, -0.000798589, -9.817351, 0, 0, 44.65102, 1, 1, 999, 999
 1216277461, 1, 0.0002905767, 0.000237474, 0.0003285691, -0.002755592, -0.001075456, -9.817377, 0, 0, 44.65101, 1, 1, 760, 799
 1216317445, 0, 0.0002015936, 0.0002685184, 0.0002121757, -0.00149779, -0.0009489146, -9.818392, 0, 0, 44.65106, 1, 1, 999, 999
 1216317445, 1, -8.016087E-05, -1.032414E-05, 0.0003978603, -0.002877894, 0.001247523, -9.817949, 0, 0, 44.65106, 1, 1, 760, 799
 1216357429, 0, 0.0002397684, 0.0002203437, 0.0002220601, -0.00125312, -0.001791032, -9.818022, 0, 0, 44.65111, 1, 1, 999, 999
 1216357429, 1, 0.0002141801, 0.0004398887, 0.0001998251, -0.0006373707, -0.001253371, -9.816555, 0, 0, 44.65111, 1, 1, 760, 799
 1216397413, 0, 0.0001963273, 0.0002393857, 0.0001908736, -0.001536045, 0.0002006804, -9.816815, 0, 0, 44.65115, 1, 1, 999, 999
 1216397413, 1, 2.768869E-05, 0.0002998271, 0.0002533118, 0.0004246845, -0.002740143, -9.815767, 0, 0, 44.65115, 1, 1, 760, 799
 1216438230, 0, 0.0002192807, 0.000231136, 0.0002095363, -0.0008984334, -0.0009121571, -9.817698, 0, 0, 44.6512, 1, 1, 999, 999
 1216438230, 1, 0.0002563121, 0.0001897877, 0.0002704496, -0.0005576772, -0.0008545567, -9.815604, 0, 0, 44.6512, 1, 1, 760, 799
 1216478214, 0, 0.000237748, 0.0001551521, 0.0002601934, -0.001988104, -0.0009671732, -9.816799, 0, 0, 44.65125, 1, 1, 999, 999
 1216478214, 1, -3.041118E-05, 0.0004484968, 0.000335573, 0.0009466789, -0.002565654, -9.8162, 0, 0, 44.65125, 1, 1, 760, 799
 1216518198, 0, 0.0002062194, 0.0002047775, 0.000231581, -0.001534001, -0.0007703577, -9.817447, 0, 0, 44.65129, 1, 1, 999, 999
 1216518198, 1, 0.0003074678, 0.0002013741, 0.0003432101, -0.003452566, -0.0007595253, -9.818639, 0, 0, 44.65129, 1, 1, 760, 799
 1216558182, 0, 0.0001765683, 0.0002336582, 0.000193706, -0.0008960332, -0.001804632, -9.818731, 0, 0, 44.65134, 1, 1, 999, 999
 1216558182, 1, 0.0002638312, 0.0004032036, 0.0005274524, -0.004615114, 0.001454783, -9.818121, 0, 0, 44.65134, 1, 1, 760, 799
 1216598166, 0, 0.0002697567, 0.0001852822, 0.0002277788, -0.000503477, -0.0003116282, -9.817717, 0, 0, 44.65139, 1, 1, 999, 999
 1216598166, 1, 0.0001671316, -2.331287E-05, 0.0002195599, -0.001748539, -0.002434316, -9.817179, 0, 0, 44.65139, 1, 1, 760, 799
 1216638150, 0, 0.0001510128, 0.0002091515, 0.0002352086, -0.000520019, 0.0002792159, -9.818146, 0, 0, 44.65144, 1, 1, 999, 999
 1216638150, 1, 2.805901E-05, 0.0002239219, 0.0001919689, -0.003244124, -0.0001313827, -9.817815, 0, 0, 44.65144, 1, 1, 760, 799
 1216678134, 0, 0.000208583, 0.0002278936, 0.0001996125, -0.0005445566, -0.002504577, -9.81683, 0, 0, 44.65148, 1, 1, 999, 999
 1216678134, 1, 0.0002184106, 0.0002206497, 0.0004889478, -0.001745082, -0.002817352, -9.817695, 0, 0, 44.65148, 1, 1, 760, 799
 1216718118, 0, 0.000243366, 0.0001967605, 0.0001583462, -0.0009752944, -0.001576689, -9.817453, 0, 0, 44.65153, 1, 1, 999, 999
 1216718118, 1, 0.000152954, 0.0004297035, -4.498439E-06, -0.001773146, -0.002859079, -9.817125, 0, 0, 44.65153, 1, 1, 760, 799
 1216758102, 0, 0.000226854, 0.0001565039, 0.0001834457, -0.001547243, -0.0009134461, -9.817212, 0, 0, 44.65157, 1, 1, 999, 999
 1216758102, 1, 0.0004557989, 0.0002558403, 0.0001990068, -0.0006211564, 0.0007380888, -9.817912, 0, 0, 44.65157, 1, 1, 760, 799
 1216798086, 0, 0.0001845934, 0.0002935526, 0.0001487147, -0.001643893, -5.629139E-06, -9.818282, 0, 0, 44.65162, 1, 1, 999, 999
 1216798086, 1, 0.0002460651, 0.0003838432, 0.0002747887, -0.002393898, -0.0008818174, -9.817631, 0, 0, 44.65162, 1, 1, 760, 799
 1216838070, 0, 0.0002383614, 0.0002157502, 0.0002643763, -0.0006700144, -0.0007365123, -9.816474, 0, 0, 44.65166, 1, 1, 999, 999
 1216838070, 1, 0.0002271589, 8.40012E-07, 0.0002925261, -0.002343301, -0.002043822, -9.81845, 0, 0, 44.65166, 1, 1, 760, 799
 1216878054, 0, 0.0002658359, 0.0002808578, 0.0002347074, -0.001413104, -0.000302767, -9.816906, 0, 0, 44.65171, 1, 1, 999, 999
 1216878054, 1, 0.0001206352, 0.0002722556, 0.0004796306, -0.002608854, 0.002718398, -9.816678, 0, 0, 44.65171, 1, 1, 760, 799
 1216918038, 0, 0.0002569309, 0.0002549289, 0.0002826242, -0.0003155986, -0.0008164094, -9.817821, 0, 0, 44.65176, 1, 1, 999, 999
 1216918038, 1, 0.0003305535, 0.0003312442, 0.0003437161, -0.001192823, -0.001579466, -9.819734, 0, 0, 44.65176, 1, 1, 760, 799
 1216958022, 0, 0.0002285556, 0.0002632536, 0.0001809486, -0.0011628, -0.001013228, -9.818707, 0, 0, 44.65181, 1, 1, 999, 999
 1216958022, 1, 0.0001476354, 0.0001612475, 0.0002966778, -8.640176E-05, -0.001552291, -9.815219, 0, 0, 44.65181, 1, 1, 760, 799
 1216998006, 0, 0.0001650586, 0.0002232741, 0.0002522591, -0.0009553268, -0.0002737058, -9.817692, 0, 0, 44.65185, 1, 1, 999, 999
 1216998006, 1, 0.0001549066, 5.602683E-05, -0.000151928, -0.0005715184, -0.002320779, -9.815152, 0, 0, 44.65185, 1, 1, 760, 799
 1217037990, 0, 0.0002889986, 0.000265032, 0.0002666366, -0.001769937, -0.001997516, -9.817534, 0, 0, 44.6519, 1, 1, 999, 999
 1217037990, 1, 0.000324267, 0.000331714, 0.0001513598, -0.001038728, 0.001257892, -9.81801, 0, 0, 44.6519, 1, 1, 760, 799
 1217077974, 0, 0.0002617005, 0.0002481704, 0.0002929347, -0.0005752722, -0.0004065562, -9.817224, 0, 0, 44.65194, 1, 1, 999, 999
 1217077974, 1, -4.146433E-05, 0.0004194541, 0.0001625036, -0.0003425198, -0.00194858, -9.816847, 0, 0, 44.65194, 1, 1, 760, 799
 1217117958, 0, 0.0001410895, 0.0002652976, 0.0002339862, -0.001985329, 0.0001767065, -9.817764, 0, 0, 44.65199, 1, 1, 999, 999
 1217117958, 1, 0.0003050654, 0.0002252622, 0.0003608854, -0.001407661, -0.001802702, -9.817745, 0, 0, 44.65199, 1, 1, 760, 799
 1217157942, 0, 0.0002176432, 0.0002413525, 0.0002196335, -0.0007582471, -0.001414524, -9.81679, 0, 0, 44.65203, 1, 1, 999, 999
 1217157942, 1, 0.0002288532, 0.0004107133, 0.000163421, -0.0014578, -0.002562722, -9.818426, 0, 0, 44.65203, 1, 1, 760, 799
 1217197926, 0, 0.0001447474, 0.0001541925, 0.0002349634, -5.772564E-05, -0.001032367, -9.816972, 0, 0, 44.65208, 1, 1, 999, 999
 1217197926, 1, 0.0001354302, 0.0004745572, 0.0005117502, 0.001138058, 0.0003941875, -9.817195, 0, 0, 44.65208, 1, 1, 760, 799
 1217237910, 0, 0.0001915216, 0.0002431533, 0.0002455431, -0.001266393, -0.001601468, -9.817995, 0, 0, 44.65213, 1, 1, 999, 999
 1217237910, 1, 0.0001987508, 0.000378846, 0.0002030279, 0.0006060486, 0.0006329867, -9.817663, 0, 0, 44.65213, 1, 1, 760, 799
 1217277894, 0, 0.0001812931, 0.0002555644, 0.0002618968, -0.001881017, -0.001155801, -9.817717, 0, 0, 44.65218, 1, 1, 999, 999
 1217277894, 1, 0.0001626071, 0.000229123, 0.0001022762, -0.001880854, -0.001952493, -9.818892, 0, 0, 44.65218, 1, 1, 760, 799
 1217317878, 0, 0.0003040821, 0.0002121895, 0.0001828737, -0.001491743, -0.001570438, -9.817554, 0, 0, 44.65222, 1, 1, 999, 999
 1217317878, 1, 4.997566E-05, 0.0002774957, 0.0002711921, 0.001258511, 0.002052305, -9.819324, 0, 0, 44.65222, 1, 1, 760, 799
 1217357862, 0, 0.0002117981, 0.0002447572, 0.0002549152, -0.001583935, -0.000601196, -9.816411, 0, 0, 44.65227, 1, 1, 999, 999
 1217357862, 1, 0.0001692033, 0.0004290949, -1.461659E-05, -0.001871068, -0.0007633884, -9.814495, 0, 0, 44.65227, 1, 1, 760, 799
 1217397846, 0, 0.0002236312, 0.0002467247, 0.0001593856, -0.0008502327, -0.00148002, -9.81743, 0, 0, 44.65231, 1, 1, 999, 999
 1217397846, 1, 0.0002449616, 0.0001858716, 9.872642E-05, -0.0007786811, 0.001199856, -9.816651, 0, 0, 44.65231, 1, 1, 760, 799
 1217437830, 0, 0.0001330105, 0.0002809161, 0.0002854764, -0.0008414169, -0.001381707, -9.816533, 0, 0, 44.65236, 1, 1, 999, 999
 1217437830, 1, 0.0003879682, 0.0005758789, 0.0004198043, -0.00188871, -0.0005089051, -9.817724, 0, 0, 44.65236, 1, 1, 760, 799
 1217477814, 0, 0.0002095791, 0.0002135589, 0.0002139636, -0.0009471392, -0.001994964, -9.818147, 0, 0, 44.65241, 1, 1, 1000, 1000
 1217477814, 1, 0.0003524221, 0.0003644482, 7.426663E-05, -6.272177E-05, -0.002464084, -9.816849, 0, 0, 44.65241, 1, 1, 760, 799
 1217517798, 0, 0.0001748131, 0.0002792144, 0.0001940903, -0.0006517892, -0.001210226, -9.818375, 0, 0, 44.65245, 1, 1, 1000, 1000
 1217517798, 1, 2.457491E-05, 4.216685E-05, 0.0002395421, -0.002573051, 0.0005426498, -9.819318, 0, 0, 44.65245, 1, 1, 760, 799
 1217557782, 0, 0.0002641458, 0.0002020118, 0.000270862, -0.001921335, -0.001445123, -9.817353, 0, 0, 44.6525, 1, 1, 1000, 1000
 1217557782, 1, 0.0002574918, 0.0003715623, 2.390611E-05, -0.002609968, -0.0005741224, -9.817818, 0, 0, 44.6525, 1, 1, 760, 799
 1217597766, 0, 0.00027637, 0.0002491539, 0.00018855, -0.001421429, -0.0009399971, -9.817266, 0, 0, 44.65255, 1, 1, 1000, 1000
 1217597766, 1, 0.0003397546, 1.580531E-05, 7.905607E-05, -0.001756324, -0.001311939, -9.816612, 0, 0, 44.65255, 1, 1, 760, 799
 1217637750, 0, 0.0001933383, 0.0002812783, 0.0002331409, -0.0003645486, -0.0008222937, -9.81736, 0, 0, 44.65259, 1, 1, 1000, 1000
 1217637750, 1, 0.0003790714, 0.0004635641, -5.51838E-05, -0.0001792112, 0.001200837, -9.817351, 0, 0, 44.65259, 1, 1, 760, 799
 1217677734, 0, 0.0002100777, 0.0002170263, 0.0002529325, -0.001127192, -0.001554052, -9.817519, 0, 0, 44.65264, 1, 1, 1000, 1000
 1217677734, 1, 0.0002590417, 0.0001445955, 0.0003151534, -0.001135836, -0.00249544, -9.818854, 0, 0, 44.65264, 1, 1, 760, 799
 1217717718, 0, 0.0002160357, 0.0002364248, 0.0002100577, -0.0009728833, -0.001553712, -9.816888, 0, 0, 44.65269, 1, 1, 1000, 1000
 1217717718, 1, 0.0003427077, 0.0004585221, 9.298149E-05, -0.001557466, -0.001515913, -9.817088, 0, 0, 44.65269, 1, 1, 760, 799
 1217757702, 0, 0.0002521522, 0.0002628565, 0.000210235, -3.459712E-05, -0.001082549, -9.817764, 0, 0, 44.65273, 1, 1, 1000, 1000
 1217757702, 1, 0.0002398263, 0.0001560678, 0.0001452731, -1.794173E-05, -7.73429E-05, -9.818923, 0, 0, 44.65273, 1, 1, 760, 799
 1217797686, 0, 0.0002594804, 0.0001801893, 0.0002350749, -0.0003802711, -0.001052188, -9.81652, 0, 0, 44.65278, 1, 1, 1000, 1000
 1217797686, 1, -3.65222E-05, 0.0004115324, 0.0004063415, 0.00015325, -0.0009792089, -9.817133, 0, 0, 44.65278, 1, 1, 760, 799
 1217837670, 0, 0.0002627054, 0.0003406615, 0.0002078276, -0.001121045, -0.001983958, -9.816538, 0, 0, 44.65282, 1, 1, 1000, 1000
 1217837670, 1, 0.0002434178, 0.0001540955, 0.000270544, 0.001399241, 0.001651383, -9.818632, 0, 0, 44.65282, 1, 1, 760, 799
 1217877654, 0, 0.0002642297, 0.0002604086, 0.000237196, -0.0002033909, -0.001527346, -9.817711, 0, 0, 44.65287, 1, 1, 1000, 1000
 1217877654, 1, 0.0004073211, 0.0004197725, 0.0002522704, -0.0003467992, -0.00231251, -9.815959, 0, 0, 44.65287, 1, 1, 760, 799
 1217917638, 0, 0.0002744742, 0.0002942156, 0.0001963088, -0.0009175596, -0.002032757, -9.81802, 0, 0, 44.65292, 1, 1, 1000, 1000
 1217917638, 1, 8.538111E-05, 0.0003825114, 0.0003247741, -0.001127085, -0.001413042, -9.818583, 0, 0, 44.65292, 1, 1, 760, 799
 1217957622, 0, 0.0002752184, 0.0002820163, 0.0002917876, -0.001122859, -5.821926E-05, -9.818083, 0, 0, 44.65296, 1, 1, 1000, 1000
 1217957622, 1, -2.650934E-05, 0.0002944315, 0.0001849035, -0.001013896, -0.001049594, -9.816669, 0, 0, 44.65296, 1, 1, 760, 799
 1217997606, 0, 0.000309157, 0.0002593474, 0.0002560164, -0.002083546, -0.002105755, -9.817046, 0, 0, 44.65301, 1, 1, 1000, 1000
 1217997606, 1, 0.0003341344, 0.0001976932, 0.0003100773, -0.002349494, 0.001715493, -9.815719, 0, 0, 44.65301, 1, 1, 760, 799
 1218037590, 0, 0.000256726, 0.0002284247, 0.0002963046, -0.001249369, -0.001007519, -9.81792, 0, 0, 44.65306, 1, 1, 1000, 1000
 1218037590, 1, 0.0005267072, -8.319413E-06, 4.058426E-05, -0.002352728, 0.0003354322, -9.816389, 0, 0, 44.65305, 1, 1, 760, 799
 1218077574, 0, 0.0002692043, 0.0003221695, 0.0002242153, -0.0008397624, -0.0001181562, -9.817517, 0, 0, 44.6531, 1, 1, 1000, 1000
 1218077574, 1, 0.0003315847, 0.0002804895, 0.0004671844, -0.002141526, -0.0006130682, -9.817574, 0, 0, 44.6531, 1, 1, 760, 799
 1218117558, 0, 0.0002157898, 0.0002184625, 0.000221196, -0.0008431487, -0.001375088, -9.818048, 0, 0, 44.65315, 1, 1, 1000, 1000
 1218117558, 1, 0.0001687002, 0.0003252311, 0.000258085, -0.001265918, -0.0006553673, -9.818693, 0, 0, 44.65315, 1, 1, 760, 799
 1218157542, 0, 0.000312201, 0.0001841139, 0.0002261637, -0.000785046, -0.0002919208, -9.817217, 0, 0, 44.65319, 1, 1, 1000, 1000
 1218157542, 1, 0.0006236922, 0.0003674764, 0.0001841488, -0.000723511, 0.0009850288, -9.815893, 0, 0, 44.65319, 1, 1, 760, 799
 1218197526, 0, 0.0002024841, 0.0002151252, 0.0002739494, -0.0009286792, -0.001275, -9.817036, 0, 0, 44.65324, 1, 1, 1000, 1000
 1218197526, 1, 0.0003321415, 0.000316546, 0.000119002, 0.0003069611, 0.002125068, -9.816675, 0, 0, 44.65324, 1, 1, 760, 799
 1218237510, 0, 0.0002024931, 0.0002674453, 0.0002644551, -0.001218739, 0.00088856, -9.818018, 0, 0, 44.65329, 1, 1, 1000, 1000
 1218237510, 1, 0.0002083378, 0.0003813887, 0.0003079538, -0.0002789003, -0.0003691531, -9.815652, 0, 0, 44.65329, 1, 1, 760, 799
 1218277494, 0, 0.0002534651, 0.0003135802, 0.0002169868, -0.001705013, -0.0009542728, -9.817492, 0, 0, 44.65333, 1, 1, 1000, 1000
 1218277494, 1, -8.252033E-05, 0.0003916056, 0.000202799, -0.000482441, 0.001439015, -9.817854, 0, 0, 44.65333, 1, 1, 760, 799
 1218317478, 0, 0.0002439286, 0.0002537157, 0.0002840343, 0.0004331214, -0.001131754, -9.818098, 0, 0, 44.65338, 1, 1, 1000, 1000
 1218317478, 1, 0.0003748142, 0.0001139207, 0.000360728, -0.002120269, 0.001270422, -9.819365, 0, 0, 44.65338, 1, 1, 760, 799
 1218357462, 0, 0.0001851996, 0.0002895927, 0.0002139129, -0.001080353, -0.0007619631, -9.817048, 0, 0, 44.65343, 1, 1, 1000, 1000
 1218357462, 1, 0.0002326361, 0.0001908701, 0.0003913508, 0.001007919, -0.002403354, -9.819304, 0, 0, 44.65342, 1, 1, 760, 799
 1218397446, 0, 0.0002852344, 0.0002486041, 0.000146135, -0.001155637, -0.0006093633, -9.817776, 0, 0, 44.65347, 1, 1, 1000, 1000
 1218397446, 1, 7.650549E-05, 0.0005454459, 0.000218295, -0.001144644, -0.0009520255, -9.816281, 0, 0, 44.65347, 1, 1, 760, 799
 1218437430, 0, 0.0002515565, 0.0001531496, 0.0002648599, -0.0008519491, -0.0008574589, -9.81739, 0, 0, 44.65352, 1, 1, 1000, 1000
 1218437430, 1, 0.0003396579, 0.0001019971, 0.0001968957, -0.002667858, 0.0003827348, -9.817303, 0, 0, 44.65352, 1, 1, 760, 799
 1218477414, 0, 0.0002466226, 0.0003024816, 0.0002579148, -0.0007132557, -0.0003678575, -9.816892, 0, 0, 44.65356, 1, 1, 999, 999
 1218477414, 1, 0.0002149907, 0.0002543773, 0.0001290613, 7.897443E-06, -0.002534186, -9.815509, 0, 0, 44.65356, 1, 1, 760, 799
 1218518231, 0, 0.000227191, 0.0003128627, 0.0002652461, -0.002022494, -0.0006662777, -9.817922, 0, 0, 44.65361, 1, 1, 999, 999
 1218518231, 1, 0.0002500572, 0.0001935806, 0.0003627168, -0.001113205, 0.00228476, -9.819921, 0, 0, 44.65361, 1, 1, 760, 799
 1218558215, 0, 0.0002495119, 0.000174539, 0.0002335877, -0.0003107178, -0.001314076, -9.817734, 0, 0, 44.65366, 1, 1, 999, 999
 1218558215, 1, 0.0001975703, 0.0002825217, 4.81389E-05, -0.0005677493, -0.001105145, -9.819398, 0, 0, 44.65366, 1, 1, 760, 799
 1218598199, 0, 0.0002636518, 0.0002812132, 0.0002478965, -0.0005369529, -0.001159399, -9.817728, 0, 0, 44.65371, 1, 1, 999, 999
 1218598199, 1, 0.0001804078, 0.0002291547, 0.0002764607, -0.001776817, 0.002156591, -9.81842, 0, 0, 44.65371, 1, 1, 760, 799
 1218638183, 0, 0.0002979845, 0.0002609792, 0.0002548404, -0.002285403, -0.001319553, -9.817163, 0, 0, 44.65375, 1, 1, 999, 999
 1218638183, 1, 0.0004622961, 3.90252E-05, 0.0005379703, 0.00221408, -0.0002342919, -9.816968, 0, 0, 44.65375, 1, 1, 760, 799
 1218678167, 0, 0.0002469414, 0.0002590354, 0.0001166635, -0.0003611921, -0.001150007, -9.817733, 0, 0, 44.6538, 1, 1, 999, 999
 1218678167, 1, 8.465374E-05, 0.0004995598, 0.0001362278, 0.001774148, 0.0009487944, -9.818937, 0, 0, 44.6538, 1, 1, 760, 799
 1218718151, 0, 0.0001911712, 0.0003894006, 0.0002551018, -0.0005942668, -0.001337704, -9.816568, 0, 0, 44.65384, 1, 1, 999, 999
 1218718151, 1, 0.0003092749, 6.035446E-05, 0.000370449, 0.000714346, 8.890669E-05, -9.819551, 0, 0, 44.65384, 1, 1, 760, 799
 1218758135, 0, 0.000251463, 0.000219431, 0.000266012, -0.001487747, -0.001168851, -9.817339, 0, 0, 44.65389, 1, 1, 999, 999
 1218758135, 1, 0.0001521085, 0.0004176352, 0.0004705724, -0.001427272, -0.001063846, -9.817083, 0, 0, 44.65389, 1, 1, 760, 799
 1218798119, 0, 0.0002101493, 0.0002474319, 0.0002713518, -0.001586593, -0.0005122149, -9.817463, 0, 0, 44.65393, 1, 1, 999, 999
 1218798119, 1, 0.0001702919, 0.0003152427, 0.000262898, -0.000199494, -0.001256604, -9.818333, 0, 0, 44.65393, 1, 1, 760, 799
 1218838103, 0, 0.0002596953, 0.0002698223, 0.0002840938, -0.001557206, -0.0001144562, -9.818386, 0, 0, 44.65398, 1, 1, 999, 999
 1218838103, 1, 5.531441E-05, 0.0001858317, 0.0004129783, 0.0018181, -0.0009522071, -9.817556, 0, 0, 44.65398, 1, 1, 760, 799
 1218878087, 0, 0.0002065245, 0.0002457233, 0.0002316567, -0.001227053, -0.001153257, -9.816944, 0, 0, 44.65403, 1, 1, 999, 999
 1218878087, 1, 0.0001296899, 0.0002142147, 0.0001864115, -0.002719642, 0.0004500816, -9.816994, 0, 0, 44.65403, 1, 1, 760, 799
 1218918071, 0, 0.000230024, 0.0002938795, 0.0002570399, -0.0003237617, -0.0003539835, -9.817192, 0, 0, 44.65407, 1, 1, 999, 999
 1218918071, 1, 0.0003143465, 0.0002571564, 0.0004536499, 0.0002463667, -0.001578734, -9.817568, 0, 0, 44.65407, 1, 1, 760, 799
 1218958055, 0, 0.0002812915, 0.0001853349, 0.0002659654, -0.001146385, -0.001560352, -9.817842, 0, 0, 44.65412, 1, 1, 999, 999
 1218958055, 1, -1.772313E-05, 7.557325E-05, 7.880744E-05, 0.0003165842, 0.000674569, -9.819233, 0, 0, 44.65412, 1, 1, 760, 799
 1218998039, 0, 0.0002528118, 0.0002853368, 0.0002016607, -0.001723329, -0.0004694372, -9.816443, 0, 0, 44.65416, 1, 1, 999, 999
 1218998039, 1, 0.0003064623, 0.00044735, 0.0003354032, 0.0005521042, 0.001328455, -9.817616, 0, 0, 44.65417, 1, 1, 760, 799
 1219038023, 0, 0.0001710048, 0.0002175703, 0.0001944075, -0.0008437485, -0.001564336, -9.817491, 0, 0, 44.65421, 1, 1, 999, 999
 1219038023, 1, 0.0001039486, 0.0002302069, 0.0003172784, -0.003541239, -0.002236148, -9.81937, 0, 0, 44.65421, 1, 1, 760, 799
 1219078007, 0, 0.0002641632, 0.0002414804, 0.0002860969, -0.001350696, -0.0007540163, -9.817533, 0, 0, 44.65425, 1, 1, 999, 999
 1219078007, 1, 0.000436232, 0.0002010555, 0.0001967525, -0.001109255, -0.00037398, -9.8188, 0, 0, 44.65426, 1, 1, 760, 799
 1219117991, 0, 0.0002890551, 0.0002825001, 0.0002244233, -0.001604639, -0.0008448504, -9.816997, 0, 0, 44.6543, 1, 1, 999, 999
 1219117991, 1, 0.0001265762, 0.000438839, 0.0003129469, -0.0002468652, -0.002550478, -9.815962, 0, 0, 44.6543, 1, 1, 760, 799
 1219157975, 0, 0.000251461, 0.0002543811, 0.0002377935, -0.000972316, -0.001599962, -9.818303, 0, 0, 44.65435, 1, 1, 999, 999
 1219157975, 1, 0.0002044609, 0.0002266865, 0.0002231787, -0.002568457, -0.001025021, -9.817345, 0, 0, 44.65435, 1, 1, 760, 799
 1219197959, 0, 0.0002790964, 0.0002589375, 0.0002604606, 0.0001809713, -0.001206926, -9.818774, 0, 0, 44.6544, 1, 1, 999, 999
 1219197959, 1, 0.0001659987, 0.0003491835, 0.0003060599, 0.0005145457, -0.003426692, -9.815388, 0, 0, 44.6544, 1, 1, 760, 799
 1219237943, 0, 0.0002346262, 0.0002480784, 0.000207404, -0.001511069, -0.001663581, -9.817436, 0, 0, 44.65444, 1, 1, 999, 999
 1219237943, 1, 0.0003419117, 9.63338E-05, 0.0002053677, 0.001348718, -0.0009100822, -9.817423, 0, 0, 44.65444, 1, 1, 760, 799
 1219277927, 0, 0.000279179, 0.0002237168, 0.0002430088, -0.001288856, -0.0003698829, -9.816822, 0, 0, 44.65449, 1, 1, 999, 999
 1219277927, 1, 9.976221E-05, 0.0003231212, 0.0003197789, -0.001440196, 0.001458693, -9.818242, 0, 0, 44.65449, 1, 1, 760, 799
 1219317911, 0, 0.0002628678, 0.0002240233, 0.0003056421, -0.001170018, -0.001689051, -9.817009, 0, 0, 44.65453, 1, 1, 999, 999
 1219317911, 1, 0.0001142195, 0.0001912822, 0.0003819761, 0.0002015897, -0.001912402, -9.817783, 0, 0, 44.65453, 1, 1, 760, 799
 1219357895, 0, 0.0002697571, 0.000273543, 0.0002713995, -0.002047288, -0.0004041497, -9.816288, 0, 0, 44.65458, 1, 1, 999, 999
 1219357895, 1, 5.023189E-05, 0.0001954625, 0.0002767688, 0.0001981364, 7.696808E-05, -9.819014, 0, 0, 44.65458, 1, 1, 760, 799
 1219397879, 0, 0.0002748124, 0.0002621552, 0.0002232215, -0.002612025, -0.0003586005, -9.816938, 0, 0, 44.65462, 1, 1, 999, 999
 1219397879, 1, 0.0003481366, 0.0003153744, 0.0002168828, -0.002320018, -0.002858891, -9.81718, 0, 0, 44.65462, 1, 1, 760, 799
 1219437863, 0, 0.0002939724, 0.0003219259, 0.0002898923, -0.001826436, -0.0009113558, -9.817394, 0, 0, 44.65467, 1, 1, 999, 999
 1219437863, 1, 0.0003222379, 0.0002906778, 0.0001761192, 0.0003196111, -0.003170301, -9.817453, 0, 0, 44.65467, 1, 1, 760, 799
 1219477847, 0, 0.0002290209, 0.0002359733, 0.0002506392, -0.0009101115, -0.001071704, -9.818731, 0, 0, 44.65472, 1, 1, 1000, 1000
 1219477847, 1, 0.0003770064, 0.000301766, 0.0003552134, -0.002522903, -0.00353116, -9.820024, 0, 0, 44.65472, 1, 1, 760, 799
 1219517831, 0, 0.0002620809, 0.0002909286, 0.0002915426, -0.002251545, -0.001097022, -9.818842, 0, 0, 44.65476, 1, 1, 1000, 1000
 1219517831, 1, 0.0003008799, 0.0003714155, 0.0003365119, 0.001705761, -0.001305135, -9.817949, 0, 0, 44.65476, 1, 1, 760, 799
 1219557815, 0, 0.0002760573, 0.0003260696, 0.0002566716, -0.0003576786, -0.0004549295, -9.816657, 0, 0, 44.65481, 1, 1, 1000, 1000
 1219557815, 1, 0.00019207, 0.0002938774, 0.0003014392, 0.001597845, -0.002446011, -9.817376, 0, 0, 44.65481, 1, 1, 760, 799
 1219597799, 0, 0.0002693508, 0.0002373657, 0.0002895902, -0.001151097, -0.001961704, -9.817474, 0, 0, 44.65485, 1, 1, 1000, 1000
 1219597799, 1, 0.0001470255, 0.0003086466, 0.0004278783, -0.002660245, -0.001447533, -9.817559, 0, 0, 44.65485, 1, 1, 760, 799
 1219637783, 0, 0.0002528351, 0.0002874546, 0.000193563, -0.0003746014, -0.0009474424, -9.817533, 0, 0, 44.6549, 1, 1, 1000, 1000
 1219637783, 1, 0.0001375377, 0.0003104951, 9.665293E-05, -0.003614549, 0.000795808, -9.817734, 0, 0, 44.6549, 1, 1, 760, 799
 1219677767, 0, 0.0002370562, 0.0002883854, 0.0003004374, -0.0005798602, -0.001205429, -9.817038, 0, 0, 44.65495, 1, 1, 1000, 1000
 1219677767, 1, 0.000445467, 0.0004443396, 0.0002891472, -0.0009859945, -0.002362106, -9.816596, 0, 0, 44.65495, 1, 1, 760, 799
 1219717751, 0, 0.0002794914, 0.0002768738, 0.0002049319, -0.002087071, -0.0006387105, -9.817693, 0, 0, 44.65499, 1, 1, 1000, 1000
 1219717751, 1, 0.0001881169, 0.0002925088, 0.0001931423, -0.002355945, 0.0005591367, -9.817726, 0, 0, 44.65499, 1, 1, 760, 799
 1219757735, 0, 0.0002563713, 0.0002392171, 0.0002538418, -0.0002851567, -0.001760142, -9.817719, 0, 0, 44.65504, 1, 1, 1000, 1000
 1219757735, 1, 0.0002582302, 0.0002839749, 0.0004233684, 0.001449862, -0.00129659, -9.816477, 0, 0, 44.65504, 1, 1, 760, 799
 1219797719, 0, 0.0003069943, 0.0002501761, 0.0002738035, -0.001408089, -0.001831395, -9.818483, 0, 0, 44.65509, 1, 1, 1000, 1000
 1219797719, 1, 0.0001979956, 0.0002326568, 0.0003085486, -0.002874829, -0.00015865, -9.819853, 0, 0, 44.65509, 1, 1, 760, 799
 1219837703, 0, 0.0003240512, 0.0002644955, 0.000283958, -0.002080215, -0.001666229, -9.818254, 0, 0, 44.65513, 1, 1, 1000, 1000
 1219837703, 1, 0.0002979494, 0.0002760468, 0.0001510216, -0.001023063, -0.002623706, -9.818539, 0, 0, 44.65513, 1, 1, 760, 799
 1219877687, 0, 0.0002726154, 0.000242903, 0.000271946, -0.0008170471, -0.001636699, -9.817593, 0, 0, 44.65518, 1, 1, 1000, 1000
 1219877687, 1, 0.000123984, 0.0005761285, 0.0003252001, -0.003717782, -0.0009442453, -9.817268, 0, 0, 44.65518, 1, 1, 760, 799
 1219917671, 0, 0.0002679841, 0.0002711135, 0.0002738488, -0.0007256388, -0.0002120694, -9.817457, 0, 0, 44.65522, 1, 1, 1000, 1000
 1219917671, 1, 0.0003147961, 0.0001887323, 0.0002252662, -0.001130385, -0.001714338, -9.817438, 0, 0, 44.65522, 1, 1, 760, 799
 1219957655, 0, 0.0002202795, 0.0002746412, 0.0002792028, -0.0006500192, -0.0007069183, -9.821465, 0, 0, 44.65527, 1, 1, 1000, 1000
 1219957655, 1, 0.0003721112, 0.0001868242, 0.0003179696, -0.0003965537, 0.0005611664, -9.818209, 0, 0, 44.65527, 1, 1, 760, 799
 1219997639, 0, 0.0002716571, 0.000237516, 0.0002679046, -0.001354963, -0.0002808257, -10.52729, 0, 0, 44.65532, 1, 1, 1000, 1000
 1219997639, 1, 0.0003686015, 0.0004482, 0.0003214982, -0.002047715, -0.002561061, -10.52977, 0, 0, 44.65532, 1, 1, 760, 799
 1220037623, 0, 0.0002193484, 0.000317943, 0.0002682999, -0.001536236, -0.001444236, -10.99907, 0, 0, 44.65536, 1, 1, 1000, 1000
 1220037623, 1, 0.0001000065, 0.0002099615, 0.0004411797, -0.002937025, -0.001691165, -11.0004, 0, 0, 44.65536, 1, 1, 760, 799
 1220077607, 0, 0.000268015, 0.0002798402, 0.0002400989, -0.0006839015, -0.001222364, -11.13892, 0, 0, 44.65541, 1, 1, 1000, 1000
 1220077607, 1, 0.0001775669, 0.0002638284, 0.0002979303, -0.002094306, -0.003159452, -11.13876, 0, 0, 44.65541, 1, 1, 760, 799
 1220117591, 0, 0.0002840343, 0.0002938767, 0.0002870609, 0.0004517503, -0.001838583, -11.18766, 0, 0, 44.65545, 1, 1, 1000, 1000
 1220117591, 1, 0.000427725, 0.0002377382, 0.0001461919, -6.891052E-05, -0.001328562, -11.18873, 0, 0, 44.65545, 1, 1, 760, 799
 1220157575, 0, 0.0002944595, 0.0002732685, 0.0002870896, -0.0005172192, -0.000745717, -11.20366, 0, 0, 44.6555, 1, 1, 1000, 1000
 1220157575, 1, 0.0002241467, 0.0001826025, 0.0003863293, -0.002957929, 0.001082741, -11.20491, 0, 0, 44.6555, 1, 1, 760, 799
 1220197559, 0, 0.0002029224, 0.0002905592, 0.0003052379, -0.001279491, -0.0002258102, -11.20069, 0, 0, 44.65554, 1, 1, 1000, 1000
 1220197559, 1, 0.0001820994, 0.0003329343, 0.0003029419, -0.0008566002, -0.0006632202, -11.20463, 0, 0, 44.65554, 1, 1, 760, 799
 1220237543, 0, 0.0002740471, 0.0003170208, 0.0003204487, -0.001111868, -0.001816468, -11.18442, 0, 0, 44.65559, 1, 1, 1000, 1000
 1220237543, 1, 0.0001816114, 0.0004328491, 0.0002744109, 0.0005620788, -0.001076098, -11.18913, 0, 0, 44.65559, 1, 1, 760, 799
 1220277527, 0, 0.000267882, 0.0003070484, 0.000285128, -0.0007125923, -0.0007556751, -11.16809, 0, 0, 44.65564, 1, 1, 1000, 1000
 1220277527, 1, 0.0002395731, 0.0005095537, 0.0004232387, -0.002532762, 0.0005363876, -11.17098, 0, 0, 44.65564, 1, 1, 760, 799
 1220317511, 0, 0.0002640135, 0.0002931611, 0.0003015602, -0.001273142, -0.001554394, -11.14609, 0, 0, 44.65568, 1, 1, 1000, 1000
 1220317511, 1, 0.0003572389, 0.0004564956, 0.0003553186, -0.00176326, -0.001285603, -11.14933, 0, 0, 44.65568, 1, 1, 760, 799
 1220357495, 0, 0.0002697153, 0.0002484869, 0.0002548098, -0.001403444, -0.001294024, -11.12427, 0, 0, 44.65573, 1, 1, 1000, 1000
 1220357495, 1, 0.0001823694, 0.0001649526, 0.0002689881, -0.0006037474, -0.001246551, -11.12775, 0, 0, 44.65573, 1, 1, 760, 799
 1220397479, 0, -8.377127E-05, -0.000176173, 0.0003456901, -0.0009714865, 0.0006667089, -11.15399, 0, 0, 44.65577, 1, 1, 1000, 1000
 1220397479, 1, -0.0001287528, -6.661014E-05, 0.00022807, 0.00131683, -0.001728162, -11.14878, 0, 0, 44.65577, 1, 1, 760, 799
 1220437463, 0, -0.01142189, -0.0134878, 0.0001483919, -0.0005261718, -0.001451707, -14.66336, 0, 0, 44.65582, 1, 1, 1000, 1000
 1220437463, 1, -0.01125191, -0.01333986, 0.0001643075, 0.0001323733, -0.001545522, -14.60464, 0, 0, 44.65582, 1, 1, 760, 799
 1220477447, 0, -0.01295628, -0.01475839, 4.796701E-05, -0.003194083, 0.0005603058, -15.9876, 0, 0, 44.65586, 1, 1, 999, 999
 1220477447, 1, -0.01296282, -0.01475147, 8.171279E-05, -0.004183223, 0.0011427, -15.96379, 0, 0, 44.65586, 1, 1, 760, 799
 1220517431, 0, -0.01017033, -0.01331109, -2.171843E-05, -0.006196819, 0.003079986, -15.52649, 0, 0, 44.65591, 1, 1, 999, 999
 1220517431, 1, -0.01025214, -0.01324341, 5.457769E-05, -0.004963751, 0.002363228, -15.52435, 0, 0, 44.65591, 1, 1, 760, 799
 1220557415, 0, -0.00709667, -0.008897971, -0.0002490401, -0.008689418, 0.005924238, -14.55297, 0, 0, 44.65596, 1, 1, 999, 999
 1220557415, 1, -0.007094054, -0.008891344, -0.000216039, -0.009001233, 0.004778117, -14.55973, 0, 0, 44.65596, 1, 1, 760, 799
 1220598232, 0, -0.005433458, -0.006375229, -0.0004433364, -0.009631126, 0.005585838, -13.44133, 0, 0, 44.65601, 1, 1, 999, 999
 1220598232, 1, -0.005417041, -0.006243, -0.0003876729, -0.01036645, 0.006623876, -13.45522, 0, 0, 44.65601, 1, 1, 760, 799
 1220638216, 0, -0.00163173, -0.003921091, -0.0004467785, -0.008705618, 0.006097279, -12.39072, 0, 0, 44.65605, 1, 1, 999, 999
 1220638216, 1, -0.001675354, -0.003855745, -0.0003284224, -0.008462545, 0.008204397, -12.39954, 0, 0, 44.65605, 1, 1, 760, 799
 1220678200, 0, 0.0002146952, -0.001965741, -0.0006135701, -0.007519091, 0.003878364, -11.50189, 0, 0, 44.6561, 1, 1, 999, 999
 1220678200, 1, 0.0001547218, -0.001862683, -0.0006360908, -0.006237024, 0.00389952, -11.51309, 0, 0, 44.6561, 1, 1, 760, 799
 1220718184, 0, 0.001499139, 0.001465879, -0.0006497623, -0.005595998, 0.002272617, -10.85818, 0, 0, 44.65614, 1, 1, 999, 999
 1220718184, 1, 0.001362941, 0.001432519, -0.0006212248, -0.005446008, 0.00297166, -10.86797, 0, 0, 44.65614, 1, 1, 760, 799
 1220758168, 0, 0.003297064, 0.004024471, -0.0006164714, -0.003861234, 0.002561113, -10.45116, 0, 0, 44.65619, 1, 1, 999, 999
 1220758168, 1, 0.003332294, 0.004155839, -0.0007234536, -0.003794421, -0.001434244, -10.45784, 0, 0, 44.65619, 1, 1, 760, 799
 1220798152, 0, 0.003447389, 0.005476967, -0.0007527303, -0.00228974, 0.0003035638, -10.24768, 0, 0, 44.65623, 1, 1, 999, 999
 1220798152, 1, 0.003233436, 0.005538823, -0.0008213215, -0.00218791, -0.0001571027, -10.25111, 0, 0, 44.65623, 1, 1, 760, 799
 1220838136, 0, 0.004186492, 0.006160276, -0.0008141058, -0.002053607, -8.559365E-05, -10.20215, 0, 0, 44.65628, 1, 1, 999, 999
 1220838136, 1, 0.004246701, 0.006152173, -0.0008006971, -0.002096051, -0.001455746, -10.20351, 0, 0, 44.65628, 1, 1, 760, 799
 1220878120, 0, 0.005318516, 0.006562548, -0.0009246082, -0.001579662, -0.0004054075, -10.27014, 0, 0, 44.65633, 1, 1, 999, 999
 1220878120, 1, 0.005403081, 0.006502265, -0.000876957, -0.002482385, 0.001177815, -10.2691, 0, 0, 44.65633, 1, 1, 760, 799
 1220918104, 0, 0.004230709, 0.006405376, -0.0009596895, -0.001391946, -0.0002105724, -10.39772, 0, 0, 44.65637, 1, 1, 999, 999
 1220918104, 1, 0.00419993, 0.006733255, -0.000864249, -0.002227666, -0.0001056494, -10.39836, 0, 0, 44.65637, 1, 1, 760, 799
 1220958088, 0, 0.004925245, 0.006098784, -0.001052178, -0.002959529, 7.475185E-05, -10.54806, 0, 0, 44.65642, 1, 1, 999, 999
 1220958088, 1, 0.005019804, 0.00596412, -0.00103586, -0.002887475, 0.0006652118, -10.55115, 0, 0, 44.65642, 1, 1, 760, 799
 1220998072, 0, 0.006086349, 0.006227195, -0.001005641, -0.002585134, -0.001022299, -10.67996, 0, 0, 44.65646, 1, 1, 999, 999
 1220998072, 1, 0.006182765, 0.006168253, -0.000859378, -0.002181374, 0.000907362, -10.68319, 0, 0, 44.65646, 1, 1, 760, 799
 1221038056, 0, 0.003718119, 0.006011948, -0.0009232791, -0.003018638, 9.779559E-05, -10.78874, 0, 0, 44.65651, 1, 1, 999, 999
 1221038056, 1, 0.003687002, 0.006089265, -0.0009763794, -0.004618246, -0.000752345, -10.79135, 0, 0, 44.65651, 1, 1, 760, 799
 1221078040, 0, 0.003738656, 0.004069202, -0.0009687245, -0.003126282, 0.001067805, -10.86932, 0, 0, 44.65656, 1, 1, 999, 999
 1221078040, 1, 0.003888155, 0.004089214, -0.0007365628, -0.003300868, -0.0007343179, -10.86979, 0, 0, 44.65656, 1, 1, 760, 799
 1221118024, 0, 0.003708192, 0.003799446, -0.0009471233, -0.002788723, 0.002150033, -10.90226, 0, 0, 44.6566, 1, 1, 999, 999
 1221118024, 1, 0.003518441, 0.003891819, -0.001060308, -0.003351461, -0.000228267, -10.90231, 0, 0, 44.6566, 1, 1, 760, 799
 1221158008, 0, 0.002536207, 0.003290835, -0.0009098919, -0.003447414, 0.001348242, -10.89742, 0, 0, 44.65665, 1, 1, 999, 999
 1221158008, 1, 0.002528887, 0.003297562, -0.001045909, -0.003748142, 0.001962537, -10.89845, 0, 0, 44.65665, 1, 1, 760, 799
 1221197992, 0, 0.00161591, 0.001142072, -0.000910487, -0.00381403, 0.0009026516, -10.87724, 0, 0, 44.65669, 1, 1, 999, 999
 1221197992, 1, 0.001758259, 0.001136754, -0.0009057968, -0.004696562, 0.001922643, -10.876, 0, 0, 44.65669, 1, 1, 760, 799
 1221237976, 0, 0.0005839978, 0.001490872, -0.0009271181, -0.004383173, 0.001694355, -10.83194, 0, 0, 44.65674, 1, 1, 999, 999
 1221237976, 1, 0.0004740192, 0.001349348, -0.0009286847, -0.002965033, 0.0007915746, -10.82962, 0, 0, 44.65674, 1, 1, 760, 799
 1221277960, 0, 0.002921941, 0.00347825, -0.0009276324, -0.003769998, 0.0004648274, -10.78088, 0, 0, 44.65678, 1, 1, 999, 999
 1221277960, 1, 0.00265277, 0.003426397, -0.0009000196, -0.00438911, 0.004051693, -10.78386, 0, 0, 44.65678, 1, 1, 760, 799
 1221317944, 0, 0.002259546, 0.002606672, -0.0008888164, -0.004049677, 0.00146799, -10.72888, 0, 0, 44.65683, 1, 1, 999, 999
 1221317944, 1, 0.00202646, 0.002659271, -0.0007105356, -0.004601008, 0.001384579, -10.72915, 0, 0, 44.65683, 1, 1, 760, 799
 1221357928, 0, -0.0008691872, 0.0001422622, -0.0008989708, -0.002755501, 0.003188788, -10.67584, 0, 0, 44.65688, 1, 1, 999, 999
 1221357928, 1, -0.001039199, 6.718409E-05, -0.0009847777, -0.004008382, -0.0007404722, -10.67474, 0, 0, 44.65688, 1, 1, 760, 799
 1221397912, 0, -0.0006230775, 0.0002988237, -0.0008911668, -0.004726999, 0.001925291, -10.63913, 0, 0, 44.65692, 1, 1, 999, 999
 1221397912, 1, -0.000562552, 0.0003925589, -0.0007216872, -0.004021649, 0.002213471, -10.63922, 0, 0, 44.65692, 1, 1, 760, 799
 1221437896, 0, -0.000616947, 0.0003066529, -0.0008869396, -0.004732276, 0.001805735, -10.60104, 0, 0, 44.65697, 1, 1, 999, 999
 1221437896, 1, -0.0007862555, 0.0002668895, -0.0008203943, -0.005103156, 0.0001416592, -10.59988, 0, 0, 44.65697, 1, 1, 760, 799
 1221477880, 0, 0.001782909, 0.0005599294, -0.0008494732, -0.004157633, 0.001595314, -10.57463, 0, 0, 44.65701, 1, 1, 999, 999
 1221477880, 1, 0.001949365, 0.0006452225, -0.0009017044, -0.003278458, 0.001032959, -10.57459, 0, 0, 44.65701, 1, 1, 760, 799
 1221517864, 0, 0.00324301, 0.001870102, -0.0007692599, -0.004360078, 0.0009573733, -10.55576, 0, 0, 44.65706, 1, 1, 999, 999
 1221517864, 1, 0.003215554, 0.001552282, -0.0007530077, -0.004497365, 0.002615337, -10.55733, 0, 0, 44.65706, 1, 1, 760, 799
 1221557848, 0, 0.005383849, 0.005407468, -0.0006571533, -0.003167697, 0.001846579, -10.54296, 0, 0, 44.6571, 1, 1, 999, 999
 1221557848, 1, 0.005582235, 0.005375149, -0.0007651856, -0.004215613, 0.001814846, -10.54313, 0, 0, 44.6571, 1, 1, 760, 799
 1221597832, 0, 0.004504493, 0.003400143, -0.0005665987, -0.00497525, 0.0008274101, -10.53945, 0, 0, 44.65715, 1, 1, 999, 999
 1221597832, 1, 0.004467299, 0.003368114, -0.000626048, -0.003034571, 0.001638293, -10.54062, 0, 0, 44.65715, 1, 1, 760, 799
 1221637816, 0, 0.001912105, 0.0008064731, -0.0004799075, -0.003641103, 0.001827345, -10.53678, 0, 0, 44.6572, 1, 1, 999, 999
 1221637816, 1, 0.001925905, 0.001020852, -0.0003951453, -0.005811719, 0.003387195, -10.53576, 0, 0, 44.6572, 1, 1, 760, 799
 1221677800, 0, 0.001350046, 0.001713066, -0.0004450768, -0.003335473, 0.0004491147, -10.49846, 0, 0, 44.65724, 1, 1, 999, 999
 1221677800, 1, 0.001349847, 0.001897543, -0.0004813348, -0.003806386, 0.0005979654, -10.4975, 0, 0, 44.65724, 1, 1, 760, 799
 1221717784, 0, 0.001278779, 0.001238856, -0.0003686656, -0.004349608, 0.002295733, -10.39837, 0, 0, 44.65728, 1, 1, 999, 999
 1221717784, 1, 0.001522383, 0.001129461, -0.0003601901, -0.003907971, 0.0005746012, -10.39837, 0, 0, 44.65728, 1, 1, 760, 799
 1221757768, 0, 0.001201367, 0.0009852769, -0.0002905165, -0.0034613, 0.002791569, -10.2933, 0, 0, 44.65733, 1, 1, 999, 999
 1221757768, 1, 0.0009915362, 0.0009925296, -0.000311469, -0.006649111, 0.002704275, -10.29495, 0, 0, 44.65733, 1, 1, 760, 799
 1221797752, 0, 0.0009106622, 0.001485122, -0.0001660786, -0.003792187, 0.000856276, -10.19607, 0, 0, 44.65738, 1, 1, 999, 999
 1221797752, 1, 0.001009839, 0.001575277, -7.500299E-05, -0.004873223, -0.0008832409, -10.1943, 0, 0, 44.65738, 1, 1, 760, 799
 1221837736, 0, 0.001094128, 0.00105182, -9.919266E-05, -0.003468834, 0.001898488, -10.11048, 0, 0, 44.65742, 1, 1, 999, 999
 1221837736, 1, 0.001182362, 0.001129619, 5.97006E-05, -0.005782757, 0.001532368, -10.11002, 0, 0, 44.65742, 1, 1, 760, 799
 1221877720, 0, 0.001601197, 0.0008112242, -7.863954E-05, -0.00310556, 0.002163134, -10.02957, 0, 0, 44.65747, 1, 1, 999, 999
 1221877720, 1, 0.001684208, 0.0006929997, -0.0001186422, -0.00488499, 0.0004112649, -10.03114, 0, 0, 44.65747, 1, 1, 760, 799
 1221917704, 0, 0.00160781, 0.0007953761, -3.070385E-05, -0.00347585, 0.002794207, -9.959974, 0, 0, 44.65751, 1, 1, 999, 999
 1221917704, 1, 0.001757102, 0.0008787295, -0.0001115868, -0.00243293, 0.0008959587, -9.958043, 0, 0, 44.65751, 1, 1, 760, 799
 1221957688, 0, 0.0007930346, 0.00166776, 0.0001345171, -0.00357981, 0.001444068, -9.896341, 0, 0, 44.65756, 1, 1, 999, 999
 1221957688, 1, 0.0008707345, 0.001587771, 0.0001961519, -0.003617006, -0.0004592408, -9.896356, 0, 0, 44.65756, 1, 1, 760, 799
 1221997672, 0, -6.14656E-05, 0.0024585, 0.0001146721, -0.003038286, 0.0005441903, -9.834427, 0, 0, 44.6576, 1, 1, 999, 999
 1221997672, 1, -0.0001614622, 0.00249392, 1.714336E-05, -0.004569095, 0.002738208, -9.833684, 0, 0, 44.6576, 1, 1, 760, 799
 1222037656, 0, 0.001227025, -0.001173642, 0.0001298074, -0.002922649, 0.001201188, -9.788792, 0, 0, 44.65765, 1, 1, 999, 999
 1222037656, 1, 0.001253485, -0.001133017, 7.113105E-05, -0.002773133, -0.001399422, -9.788445, 0, 0, 44.65765, 1, 1, 760, 799
 1222077640, 0, 0.002232033, 0.0001863794, 0.0001258617, -0.003317464, 0.0003428885, -9.740805, 0, 0, 44.6577, 1, 1, 999, 999
 1222077640, 1, 0.002260049, 0.0002977972, 5.168135E-06, -0.005655209, 0.0003051617, -9.742167, 0, 0, 44.6577, 1, 1, 760, 799
 1222117624, 0, -0.0005751913, 0.0008670933, -6.942874E-06, -0.002810312, 0.0009830096, -9.706885, 0, 0, 44.65774, 1, 1, 999, 999
 1222117624, 1, -0.0006352345, 0.0009295867, -5.037554E-06, -0.00350017, 0.000984799, -9.707365, 0, 0, 44.65774, 1, 1, 760, 799
 1222157608, 0, -0.00160722, -0.001917189, 7.672271E-06, -0.004140007, 0.0001024647, -9.671541, 0, 0, 44.65779, 1, 1, 999, 999
 1222157608, 1, -0.001521242, -0.001892135, 0.0001271431, -0.002248609, -0.001024958, -9.671238, 0, 0, 44.65779, 1, 1, 760, 799
 1222197592, 0, 2.675699E-05, -0.002179531, -0.0001349462, -0.002967325, 0.001380782, -9.652458, 0, 0, 44.65783, 1, 1, 999, 999
 1222197592, 1, 2.448256E-05, -0.002222545, -0.0002451971, -0.002926393, -0.0003327211, -9.653337, 0, 0, 44.65783, 1, 1, 760, 799
 1222237576, 0, -0.001843109, -0.002134984, -6.968706E-05, -0.001402844, -0.0005129884, -9.633348, 0, 0, 44.65788, 1, 1, 999, 999
 1222237576, 1, -0.001784271, -0.002102952, 1.561091E-06, 0.0002627433, -0.001082471, -9.635591, 0, 0, 44.65788, 1, 1, 760, 799
 1222277560, 0, 0.0001350468, 0.0005801505, -0.0001955319, -0.00283031, 0.0006781517, -9.60865, 0, 0, 44.65792, 1, 1, 999, 999
 1222277560, 1, 9.991856E-05, 0.0005978215, -0.0002506024, -0.0004572425, 0.001642354, -9.607033, 0, 0, 44.65792, 1, 1, 760, 799
 1222317544, 0, 0.0005262755, -3.280257E-05, -0.0002295514, -0.00263747, -0.000365518, -9.606752, 0, 0, 44.65797, 1, 1, 999, 999
 1222317544, 1, 0.0003107025, 2.329612E-05, -0.0001912018, -0.003014249, 0.0006564818, -9.609394, 0, 0, 44.65797, 1, 1, 760, 799
 1222357528, 0, -0.000161374, 0.0009628407, -0.0002502518, -0.001957268, 0.0004658894, -9.582007, 0, 0, 44.65802, 1, 1, 999, 999
 1222357528, 1, -0.0003061611, 0.001002343, -0.000156647, -0.001807413, -0.0005239826, -9.583207, 0, 0, 44.65802, 1, 1, 760, 799
 1222397512, 0, -0.0001064701, 0.0008310069, -0.0001897714, -0.001878153, 0.000713437, -9.584421, 0, 0, 44.65806, 1, 1, 999, 999
 1222397512, 1, -0.0002185161, 0.0009200143, -0.0002905963, -0.002591163, 0.001496811, -9.582958, 0, 0, 44.65806, 1, 1, 760, 799
 1222437496, 0, 0.0004319991, -0.002172398, -0.0001360738, -0.0020064, -0.0007675975, -9.581033, 0, 0, 44.65811, 1, 1, 999, 999
 1222437496, 1, 0.0003538467, -0.002319297, -0.000135394, -0.0007233048, -0.001140919, -9.580135, 0, 0, 44.65811, 1, 1, 760, 799
 1222477480, 0, 4.555521E-06, -0.003334509, -0.0002970267, -0.002160169, -0.0008974695, -9.565784, 0, 0, 44.65815, 1, 1, 1000, 1000
 1222477480, 1, -2.02612E-05, -0.003144844, -0.000503346, -0.003334594, -0.0002821635, -9.566688, 0, 0, 44.65815, 1, 1, 760, 799
 1222517464, 0, -0.0001300121, -0.001336913, -0.0005651816, -0.001677027, 0.000214206, -9.570513, 0, 0, 44.6582, 1, 1, 1000, 1000
 1222517464, 1, -0.0003244971, -0.001204448, -0.0004447427, -0.0003312416, 0.0008197649, -9.571093, 0, 0, 44.6582, 1, 1, 760, 799
 1222557448, 0, -9.875461E-05, -0.001185764, -0.000811994, -0.0029577, -0.002492329, -9.577412, 0, 0, 44.65825, 1, 1, 1000, 1000
 1222557448, 1, 3.292181E-06, -0.001191241, -0.0008430915, -0.002102426, 0.001121927, -9.577372, 0, 0, 44.65824, 1, 1, 760, 799
 1222597432, 0, -0.0001465949, -0.003963072, -0.0008106816, -0.001634783, 0.0001199796, -9.576277, 0, 0, 44.65829, 1, 1, 1000, 1000
 1222597432, 1, -0.0001549799, -0.004064953, -0.0008073798, -0.003425071, 0.0004428694, -9.575694, 0, 0, 44.65829, 1, 1, 760, 799
 1222637416, 0, -8.234824E-05, -0.0037583, -0.0008299075, -0.001525754, -0.001106226, -9.580474, 0, 0, 44.65834, 1, 1, 1000, 1000
 1222637416, 1, -0.000176953, -0.003677225, -0.001072142, -0.00142719, -0.001230794, -9.580823, 0, 0, 44.65833, 1, 1, 760, 799
 1222678233, 0, -6.202272E-05, -0.0008615425, -0.000898463, -0.001087207, -0.0004496206, -9.587831, 0, 0, 44.65838, 1, 1, 1000, 1000
 1222678233, 1, -0.0001562839, -0.0008108004, -0.001029967, -0.001112988, -0.0008326485, -9.591016, 0, 0, 44.65838, 1, 1, 760, 799
 1222718217, 0, 0.001079326, -0.0003418314, -0.0008557878, -0.0009362045, -0.0004008803, -9.592343, 0, 0, 44.65843, 1, 1, 1000, 1000
 1222718217, 1, 0.0009187124, -0.0002284397, -0.001138218, -0.002517561, 0.0001927023, -9.592687, 0, 0, 44.65843, 1, 1, 760, 799
 1222758201, 0, 0.002656058, -0.0003262531, -0.0005462666, -0.002077132, -0.0007172722, -9.60328, 0, 0, 44.65847, 1, 1, 1000, 1000
 1222758201, 1, 0.002644795, -0.0003331995, -0.0006351485, -0.002855139, -0.003051425, -9.602798, 0, 0, 44.65847, 1, 1, 760, 799
 1222798185, 0, -8.271473E-05, -0.0002608268, -0.0003476914, -0.001166682, 0.0004554362, -9.614481, 0, 0, 44.65852, 1, 1, 1000, 1000
 1222798185, 1, -0.0002242762, -0.0002891552, -6.588931E-05, -0.0006512655, -0.001664969, -9.612988, 0, 0, 44.65852, 1, 1, 760, 799
 1222838169, 0, -0.002355357, -0.0007208554, -0.0002304783, -0.00244768, -0.0002542975, -9.624427, 0, 0, 44.65857, 1, 1, 1000, 1000
 1222838169, 1, -0.002520532, -0.0008022215, -0.0001233616, -0.002261014, -0.0009645703, -9.621531, 0, 0, 44.65857, 1, 1, 760, 799
 1222878153, 0, 6.726501E-05, -0.0006827947, -0.0001568725, -0.002790512, -0.0008262155, -9.63709, 0, 0, 44.65861, 1, 1, 1000, 1000
 1222878153, 1, 0.0001908713, -0.0005370859, -5.246511E-07, -0.0002111109, -0.001294382, -9.636217, 0, 0, 44.65861, 1, 1, 760, 799
 1222918137, 0, 5.231856E-05, 0.0007397255, -3.758072E-05, -0.0007636454, -0.0004817793, -9.642129, 0, 0, 44.65865, 1, 1, 1000, 1000
 1222918137, 1, -3.74302E-05, 0.0006680657, 5.518437E-05, -0.003161225, 4.627062E-05, -9.642039, 0, 0, 44.65865, 1, 1, 760, 799
 1222958121, 0, 0.001149024, 0.0005953973, 2.608672E-06, -0.002240034, -0.001204929, -9.654663, 0, 0, 44.6587, 1, 1, 1000, 1000
 1222958121, 1, 0.001013497, 0.0006558107, -7.925387E-05, -0.001707518, -0.002737606, -9.654852, 0, 0, 44.6587, 1, 1, 760, 799
 1222998105, 0, -0.003061443, 0.001413738, 0.0001737134, -0.002576745, -0.001510425, -9.681746, 0, 0, 44.65874, 1, 1, 1000, 1000
 1222998105, 1, -0.003152439, 0.001524124, 0.0003258679, -0.004173032, -0.0009843863, -9.683936, 0, 0, 44.65874, 1, 1, 760, 799
 1223038089, 0, -0.002789459, 0.0005917674, 0.0001914886, -0.001349153, -0.0006037825, -9.685022, 0, 0, 44.65879, 1, 1, 1000, 1000
 1223038089, 1, -0.002889581, 0.0005490187, 0.0001410259, -0.00163633, -0.004539261, -9.686572, 0, 0, 44.65879, 1, 1, 760, 799
 1223078073, 0, 0.0003303644, 0.000666276, 0.0002634171, -0.002108803, -5.874378E-05, -9.693452, 0, 0, 44.65884, 1, 1, 1000, 1000
 1223078073, 1, 0.0007355135, 0.0007531967, 0.0001889502, -0.001147805, 0.00142949, -9.69425, 0, 0, 44.65884, 1, 1, 760, 799
 1223118057, 0, -0.0007256077, 3.728345E-05, 0.0004746776, -0.0006662281, -0.0009113903, -9.708595, 0, 0, 44.65888, 1, 1, 1000, 1000
 1223118057, 1, -0.000690338, -3.035639E-06, 0.0005358182, -0.001979498, -0.003582853, -9.709841, 0, 0, 44.65888, 1, 1, 760, 799
 1223158041, 0, 0.002308076, -0.002305082, 0.0007138985, -0.001666571, -0.001294648, -9.725151, 0, 0, 44.65893, 1, 1, 1000, 1000
 1223158041, 1, 0.002451645, -0.002178208, 0.0007526258, -0.00060365, 0.002760892, -9.723618, 0, 0, 44.65893, 1, 1, 760, 799
 1223198025, 0, 0.002211249, -0.002213566, 0.0006672294, -0.001229545, -0.001434349, -9.726119, 0, 0, 44.65897, 1, 1, 1000, 1000
 1223198025, 1, 0.002030024, -0.002197259, 0.0005254713, -0.002814977, -0.001032026, -9.725584, 0, 0, 44.65897, 1, 1, 760, 799
 1223238009, 0, -0.001205329, -0.002175601, 0.0008478835, -0.0007287202, -0.0006809258, -9.735702, 0, 0, 44.65902, 1, 1, 1000, 1000
 1223238009, 1, -0.00125046, -0.00202161, 0.0007948484, -0.002596776, -0.001405052, -9.735151, 0, 0, 44.65902, 1, 1, 760, 799
 1223277993, 0, -0.001488828, -0.0008938113, 0.001055379, -0.0007997755, -0.0009122361, -9.750572, 0, 0, 44.65906, 1, 1, 1000, 1000
 1223277993, 1, -0.00127399, -0.00107848, 0.0009451441, -0.0001743151, 0.0007687508, -9.751503, 0, 0, 44.65906, 1, 1, 760, 799
 1223317977, 0, -0.0005185414, 0.001854791, 0.001073907, -0.002619663, -0.0005513244, -9.760868, 0, 0, 44.65911, 1, 1, 1000, 1000
 1223317977, 1, -0.0004950145, 0.001912989, 0.001046904, -0.002187697, 1.900584E-05, -9.759153, 0, 0, 44.65911, 1, 1, 760, 799
 1223357961, 0, -0.0007723085, 0.0008968278, 0.001141362, -0.002059338, -0.001008606, -9.765208, 0, 0, 44.65915, 1, 1, 1000, 1000
 1223357961, 1, -0.0008214256, 0.0007481631, 0.0009484594, -0.001823386, -0.001868292, -9.767169, 0, 0, 44.65915, 1, 1, 760, 799
 1223397945, 0, -0.0006959915, 0.0008146954, 0.001123155, -0.002631221, -0.001537759, -9.766703, 0, 0, 44.6592, 1, 1, 1000, 1000
 1223397945, 1, -0.0007298283, 0.0009153459, 0.0009946889, -0.001421912, -0.001598076, -9.766032, 0, 0, 44.6592, 1, 1, 760, 799
 1223437929, 0, -0.001310707, 0.0007760886, 0.001136525, -0.00236358, -0.00118641, -9.770548, 0, 0, 44.65924, 1, 1, 1000, 1000
 1223437929, 1, -0.00126245, 0.0009471331, 0.00109937, -0.002166407, -0.001197101, -9.769209, 0, 0, 44.65924, 1, 1, 760, 799
 1223477913, 0, -0.0005400137, 0.001187074, 0.00120524, -0.0007785468, -0.001096028, -9.78916, 0, 0, 44.65929, 1, 1, 999, 999
 1223477913, 1, -0.0007870365, 0.001264184, 0.001209866, -0.003345852, 0.0007289032, -9.788968, 0, 0, 44.65929, 1, 1, 760, 799
 1223517897, 0, 0.001042763, 0.001104925, 0.001216453, -0.001684943, -0.001437179, -9.790432, 0, 0, 44.65934, 1, 1, 999, 999
 1223517897, 1, 0.0009771376, 0.0010665, 0.001103643, -0.002702404, -0.002344094, -9.791283, 0, 0, 44.65934, 1, 1, 760, 799
 1223557881, 0, 0.001278508, -0.0009912179, 0.001242657, -0.002201915, -0.001917628, -9.799759, 0, 0, 44.65938, 1, 1, 999, 999
 1223557881, 1, 0.001282303, -0.001070343, 0.001192008, -0.001849624, 0.001513203, -9.799772, 0, 0, 44.65938, 1, 1, 760, 799
 1223597865, 0, 0.001311816, -0.0001243475, 0.001205309, -0.00204065, -0.001317058, -9.80318, 0, 0, 44.65943, 1, 1, 999, 999
 1223597865, 1, 0.001464358, 7.765429E-05, 0.001263725, -0.0009493052, -0.002410564, -9.804089, 0, 0, 44.65943, 1, 1, 760, 799
 1223637849, 0, 0.001272179, -0.0001144275, 0.001203315, -0.002665373, -0.001485559, -9.802728, 0, 0, 44.65947, 1, 1, 999, 999
 1223637849, 1, 0.001410775, 2.612657E-05, 0.001383419, -0.0001202763, -0.002995639, -9.802796, 0, 0, 44.65947, 1, 1, 760, 799
 1223677833, 0, 0.001235762, -0.0001230012, 0.001263254, -0.001875615, -0.00024374, -9.803926, 0, 0, 44.65952, 1, 1, 999, 999
 1223677833, 1, 0.001552014, 1.062114E-06, 0.001421412, -0.00170148, -0.003956784, -9.80057, 0, 0, 44.65952, 1, 1, 760, 799
 1223717817, 0, 0.001200684, -0.0001145746, 0.001241868, -0.001137405, -0.001543079, -9.80372, 0, 0, 44.65956, 1, 1, 999, 999
 1223717817, 1, 0.00125056, -0.0001761816, 0.00117053, -0.001818502, -0.00208457, -9.804562, 0, 0, 44.65956, 1, 1, 760, 799
 1223757801, 0, -0.00155263, -9.514584E-05, 0.001318808, -0.002808812, -0.001956133, -9.805891, 0, 0, 44.65961, 1, 1, 999, 999
 1223757801, 1, -0.001458891, -2.636216E-06, 0.001120059, -0.002071691, 0.001590241, -9.802691, 0, 0, 44.65961, 1, 1, 760, 799
 1223797785, 0, -0.003177657, -0.000227809, 0.001278437, -0.0009845375, -0.001582308, -9.820962, 0, 0, 44.65965, 1, 1, 999, 999
 1223797785, 1, -0.003243015, -0.0001660301, 0.001325317, -0.001247718, 0.0001754563, -9.822832, 0, 0, 44.65965, 1, 1, 760, 799
 1223837769, 0, -0.002927057, -0.001308405, 0.001286771, -0.0009257422, 9.640598E-05, -9.820797, 0, 0, 44.6597, 1, 1, 999, 999
 1223837769, 1, -0.002913771, -0.001549526, 0.00130306, -0.001754807, -0.002252397, -9.818304, 0, 0, 44.6597, 1, 1, 760, 799
 1223877753, 0, -0.0001732501, -0.0008668877, 0.00130139, -0.00173825, -0.001914883, -9.8178, 0, 0, 44.65974, 1, 1, 999, 999
 1223877753, 1, -4.240575E-05, -0.0008230884, 0.001264415, -0.0007332292, -0.001294063, -9.81879, 0, 0, 44.65974, 1, 1, 760, 799
 1223917737, 0, 0.0003782583, -0.0006646978, 0.001229487, -0.003172179, -0.0005055672, -9.822861, 0, 0, 44.65979, 1, 1, 999, 999
 1223917737, 1, 0.0002562872, -0.0005990344, 0.001324185, -0.00144372, -0.00165435, -9.819895, 0, 0, 44.65979, 1, 1, 760, 799
 1223957721, 0, 0.0008683437, -0.0006111299, 0.001138051, -0.002197169, -0.0008165565, -9.82156, 0, 0, 44.65984, 1, 1, 999, 999
 1223957721, 1, 0.0008233709, -0.0006978291, 0.001034461, -0.001417359, -7.041665E-05, -9.823507, 0, 0, 44.65984, 1, 1, 760, 799
 1223997705, 0, 0.001213362, -1.248875E-05, 0.001156698, -0.001738968, -0.0003803811, -9.822847, 0, 0, 44.65988, 1, 1, 999, 999
 1223997705, 1, 0.001379827, -3.288403E-05, 0.001103296, -0.001361475, 0.0004714766, -9.824862, 0, 0, 44.65988, 1, 1, 760, 799
 1224037689, 0, 0.001238608, 0.0007669993, 0.001059481, -0.002071081, -0.001033425, -9.82452, 0, 0, 44.65993, 1, 1, 999, 999
 1224037689, 1, 0.001166431, 0.0009191729, 0.00108565, -0.0007389926, 0.0001158805, -9.824869, 0, 0, 44.65993, 1, 1, 760, 799
 1224077673, 0, -0.0002340402, -0.0001479984, 0.0008030835, -0.003758034, -0.0008492656, -9.828074, 0, 0, 44.65997, 1, 1, 999, 999
 1224077673, 1, -0.0003521804, -7.782485E-05, 0.0006729719, -0.0006653065, -0.0003054794, -9.828481, 0, 0, 44.65997, 1, 1, 760, 799
 1224117657, 0, 0.0006746121, -0.0001030844, 0.000363837, -0.001915306, -0.001405103, -9.827229, 0, 0, 44.66002, 1, 1, 999, 999
 1224117657, 1, 0.000672235, -0.0001984535, 0.000293589, -0.003474543, 2.062606E-05, -9.828269, 0, 0, 44.66002, 1, 1, 760, 799
 1224157641, 0, -0.0002250215, -0.0009161179, 0.0001836676, -0.002306855, 0.00034667, -9.820981, 0, 0, 44.66006, 1, 1, 999, 999
 1224157641, 1, 1.299501E-05, -0.0006929441, 6.842634E-05, -0.001808604, -0.0003529408, -9.819801, 0, 0, 44.66006, 1, 1, 760, 799
 1224197625, 0, -0.0008992944, -0.00120201, 0.0001575146, -0.002516644, -0.0001380566, -9.820094, 0, 0, 44.66011, 1, 1, 999, 999
 1224197625, 1, -0.001010784, -0.001496004, 0.0001770543, -0.003340375, 0.001791229, -9.821403, 0, 0, 44.66011, 1, 1, 760, 799
 1224237609, 0, -0.001415052, -0.001077957, 1.684674E-05, -0.001991338, -0.0009993776, -9.823776, 0, 0, 44.66015, 1, 1, 999, 999
 1224237609, 1, -0.001471163, -0.001006409, -3.924622E-05, -0.002608478, 0.0008036244, -9.822887, 0, 0, 44.66015, 1, 1, 760, 799
 1224277593, 0, 0.001674986, 0.00239154, 8.591519E-05, -0.00272323, -4.474154E-06, -9.826759, 0, 0, 44.6602, 1, 1, 999, 999
 1224277593, 1, 0.001457219, 0.002494651, 4.622723E-05, -0.00226702, -0.003023543, -9.828983, 0, 0, 44.6602, 1, 1, 760, 799
 1224317577, 0, 0.003708576, 0.003857649, -4.906449E-05, -0.002552309, 2.232923E-05, -9.832132, 0, 0, 44.66024, 1, 1, 999, 999
 1224317577, 1, 0.00373039, 0.003921504, 6.597306E-05, -0.004127841, -0.0002191736, -9.831629, 0, 0, 44.66024, 1, 1, 760, 799
 1224357561, 0, 0.002604038, 0.002676792, -5.46729E-05, -0.002484, -0.0004781844, -9.833401, 0, 0, 44.66029, 1, 1, 999, 999
 1224357561, 1, 0.002441935, 0.002667361, -8.327161E-05, -0.001313394, -0.001129425, -9.835961, 0, 0, 44.66029, 1, 1, 760, 799
 1224397545, 0, -0.0009261532, 0.002780179, 0.0001036547, -0.003151288, -0.0004091721, -9.821089, 0, 0, 44.66034, 1, 1, 999, 999
 1224397545, 1, -0.0009713526, 0.003038816, -1.690181E-05, -0.003743281, 3.676212E-06, -9.820676, 0, 0, 44.66033, 1, 1, 760, 799
 1224437529, 0, -0.0003956729, 0.002136647, 0.0001774647, -0.003041186, 0.0002413016, -9.822815, 0, 0, 44.66038, 1, 1, 999, 999
 1224437529, 1, -0.0003848574, 0.002154718, 0.0001054823, -0.003422169, -0.0007998382, -9.821786, 0, 0, 44.66038, 1, 1, 760, 799
 1224477513, 0, 0.003489934, 0.0019524, 0.0001878415, -0.001584275, 0.0004080034, -9.821699, 0, 0, 44.66042, 1, 1, 1000, 1000
 1224477513, 1, 0.003590837, 0.002004469, 0.0001302075, -0.0034051, -0.003138755, -9.821935, 0, 0, 44.66042, 1, 1, 760, 799
 1224517497, 0, 0.004746478, 0.002046212, 0.0001832746, -0.002755235, -0.0002114481, -9.821692, 0, 0, 44.66047, 1, 1, 1000, 1000
 1224517497, 1, 0.004712553, 0.001885155, 0.000170964, -0.005916243, -0.0003575577, -9.820337, 0, 0, 44.66047, 1, 1, 760, 799
 1224557481, 0, 0.004519613, 0.001478501, 0.0002614188, -0.003765587, -0.0007622013, -9.823718, 0, 0, 44.66051, 1, 1, 1000, 1000
 1224557481, 1, 0.004515056, 0.001687808, 0.000126813, -0.001619176, -0.001226826, -9.826627, 0, 0, 44.66051, 1, 1, 760, 799
 1224597465, 0, 0.0008094337, -9.530684E-05, 0.0004126227, -0.001993041, -0.0001061888, -9.822713, 0, 0, 44.66056, 1, 1, 1000, 1000
 1224597465, 1, 0.0009060955, -0.0002217162, 0.0002406573, -0.002662637, 0.0005629929, -9.822431, 0, 0, 44.66056, 1, 1, 760, 799
 1224637449, 0, 0.0005887594, -0.0009263761, 0.0005007255, -0.002902336, -0.0004983572, -9.81568, 0, 0, 44.66061, 1, 1, 1000, 1000
 1224637449, 1, 0.0008325232, -0.001124633, 0.0008070549, -0.004132871, 0.0004474415, -9.813237, 0, 0, 44.6606, 1, 1, 760, 799
 1224677433, 0, 0.003435571, -0.001274321, 0.0005621355, -0.002702056, -0.0002256418, -9.817183, 0, 0, 44.66065, 1, 1, 1000, 1000
 1224677433, 1, 0.003403208, -0.001210266, 0.0006773775, -0.001461905, -0.001766536, -9.816683, 0, 0, 44.66065, 1, 1, 760, 799
 1224717417, 0, 0.005323722, -0.0005961303, 0.0006036891, -0.002139542, -0.001273903, -9.81362, 0, 0, 44.66069, 1, 1, 1000, 1000
 1224717417, 1, 0.005477654, -0.0003775657, 0.000748934, -0.0003477515, 0.0004893292, -9.813547, 0, 0, 44.66069, 1, 1, 760, 799
 1224758234, 0, 0.006949027, -0.0004230924, 0.0005881878, -0.002512361, -0.0007891045, -9.81617, 0, 0, 44.66074, 1, 1, 1000, 1000
 1224758234, 1, 0.006999053, -0.0003019259, 0.0005326851, -0.002148952, -0.001131008, -9.815069, 0, 0, 44.66074, 1, 1, 760, 799
 1224798218, 0, 0.001972754, -0.001354657, 0.0006388709, -0.002022874, -0.0002814558, -9.81089, 0, 0, 44.66079, 1, 1, 1000, 1000
 1224798218, 1, 0.001947526, -0.001452771, 0.0006797169, -0.003312064, -0.0006983452, -9.811207, 0, 0, 44.66079, 1, 1, 760, 799
 1224838202, 0, 0.0004252614, -0.0006700891, 0.0007301258, -0.002180907, 0.0001462184, -9.807744, 0, 0, 44.66083, 1, 1, 1000, 1000
 1224838202, 1, 0.0002152947, -0.0006541404, 0.0007017637, -0.004071581, 0.0005600914, -9.807072, 0, 0, 44.66083, 1, 1, 760, 799
 1224878186, 0, 0.001497987, 0.001382149, 0.0007790019, -0.002970158, -0.001309784, -9.805237, 0, 0, 44.66088, 1, 1, 1000, 1000
 1224878186, 1, 0.001583229, 0.001327801, 0.0009700862, -0.005210058, 0.000322013, -9.806158, 0, 0, 44.66088, 1, 1, 760, 799
 1224918170, 0, 0.001195731, 0.001191318, 0.0009511816, -0.001636344, -0.0002053495, -9.799292, 0, 0, 44.66092, 1, 1, 1000, 1000
 1224918170, 1, 0.001207131, 0.001236996, 0.0009548775, -0.002902587, -0.000654778, -9.797718, 0, 0, 44.66092, 1, 1, 760, 799
 1224958154, 0, -0.0005634875, 0.0008914173, 0.001106127, -0.002812518, 2.323669E-05, -9.809453, 0, 0, 44.66097, 1, 1, 1000, 1000
 1224958154, 1, -0.000494904, 0.001287629, 0.001222671, -0.003532903, -0.003185755, -9.808468, 0, 0, 44.66097, 1, 1, 760, 799
 1224998138, 0, -0.001663548, 0.001429684, 0.001022527, -0.001836854, -0.0008046993, -9.81135, 0, 0, 44.66101, 1, 1, 1000, 1000
 1224998138, 1, -0.001716388, 0.001401853, 0.0009709575, -0.001663771, 0.002312468, -9.809618, 0, 0, 44.66101, 1, 1, 760, 799
 1225038122, 0, 0.0001903657, 0.002646029, 0.0009741209, -0.002043111, 7.361533E-05, -9.806017, 0, 0, 44.66106, 1, 1, 1000, 1000
 1225038122, 1, 0.0002313481, 0.002658607, 0.001041747, -0.003405903, -0.002231169, -9.80249, 0, 0, 44.66106, 1, 1, 760, 799
 1225078106, 0, 0.0009722846, 0.005809046, 0.000927466, -0.002740322, -0.000960741, -9.811531, 0, 0, 44.6611, 1, 1, 1000, 1000
 1225078106, 1, 0.0006367746, 0.005907944, 0.001024837, 5.948455E-05, -0.002508335, -9.808494, 0, 0, 44.6611, 1, 1, 760, 799
 1225118090, 0, 0.001849211, 0.00653292, 0.0008793698, -0.003030096, -0.001358492, -9.813027, 0, 0, 44.66115, 1, 1, 1000, 1000
 1225118090, 1, 0.001844867, 0.006537625, 0.0008582123, -0.003027111, 0.000663112, -9.812656, 0, 0, 44.66115, 1, 1, 760, 799
 1225158074, 0, 0.001741447, 0.005363487, 0.0008461872, -0.00195199, -0.0009701595, -9.811532, 0, 0, 44.66119, 1, 1, 1000, 1000
 1225158074, 1, 0.001630795, 0.005552464, 0.0007255374, -0.004772909, -0.002900067, -9.810116, 0, 0, 44.66119, 1, 1, 760, 799
 1225198058, 0, 0.001710076, 0.001553646, 0.0008493011, -0.003116466, -0.0007315394, -9.813564, 0, 0, 44.66124, 1, 1, 1000, 1000
 1225198058, 1, 0.001629003, 0.001655583, 0.0008568098, -0.001406499, 0.0008452029, -9.815174, 0, 0, 44.66124, 1, 1, 760, 799
 1225238042, 0, 0.001821351, -0.0001200278, 0.0007436273, -0.002195418, -0.0001914417, -9.813719, 0, 0, 44.66128, 1, 1, 1000, 1000
 1225238042, 1, 0.001641657, 0.0001124246, 0.0007539535, -0.0009775232, -0.003053968, -9.812952, 0, 0, 44.66129, 1, 1, 760, 800
 1225278026, 0, 0.001277103, 0.00172501, 0.0009057531, -0.002821872, -0.001081795, -9.809014, 0, 0, 44.66133, 1, 1, 1000, 1000
 1225278026, 1, 0.001407816, 0.001897817, 0.0008609896, -0.003518774, -0.00365511, -9.80882, 0, 0, 44.66133, 1, 1, 760, 800
 1225318010, 0, -9.957621E-06, 0.001511261, 0.0008864626, -0.002326244, -0.0005693046, -9.813286, 0, 0, 44.66137, 1, 1, 1000, 1000
 1225318010, 1, -8.585049E-05, 0.001669269, 0.0008162482, -0.003636677, 0.001030236, -9.813856, 0, 0, 44.66137, 1, 1, 760, 800
 1225357994, 0, -0.001137646, -0.0006345664, 0.0008008513, -0.002541317, -0.0009974617, -9.811498, 0, 0, 44.66142, 1, 1, 1000, 1000
 1225357994, 1, -0.001279329, -0.00042738, 0.0007086114, -0.001431875, -0.003215864, -9.81048, 0, 0, 44.66142, 1, 1, 760, 800
 1225397978, 0, -0.001711487, 1.359395E-05, 0.0006932744, -0.002989256, -0.0005990836, -9.810566, 0, 0, 44.66146, 1, 1, 1000, 1000
 1225397978, 1, -0.001690728, -3.74645E-05, 0.0007439513, -0.0006701737, -0.0007570807, -9.808828, 0, 0, 44.66146, 1, 1, 760, 800
 1225437962, 0, -0.002246297, -0.0001423538, 0.0007352123, -0.002344094, -0.002293979, -9.811296, 0, 0, 44.66151, 1, 1, 1000, 1000
 1225437962, 1, -0.002366589, 0.0001518325, 0.000656153, -0.003032969, -0.0004614734, -9.81158, 0, 0, 44.66151, 1, 1, 760, 800
 1225477946, 0, -0.001859808, 0.0004011057, 0.0007091827, -0.002182802, -0.00113274, -9.808125, 0, 0, 44.66155, 1, 1, 999, 999
 1225477946, 1, -0.001981161, 0.0003371804, 0.0006914418, -0.003068625, -0.002287959, -9.807485, 0, 0, 44.66155, 1, 1, 760, 800
 1225517930, 0, 0.00112017, 0.004671682, 0.0005447909, -0.002545563, -0.001225438, -9.806162, 0, 0, 44.6616, 1, 1, 999, 999
 1225517930, 1, 0.001263826, 0.004674588, 0.0007914582, -0.001477334, -0.001296274, -9.809814, 0, 0, 44.6616, 1, 1, 760, 800
 1225557914, 0, 0.0001677161, 0.001782689, 0.0003122425, -0.002211615, -9.150262E-05, -9.802215, 0, 0, 44.66164, 1, 1, 999, 999
 1225557914, 1, 0.000275548, 0.001516167, 0.0003609916, -0.004368656, -0.00107965, -9.803722, 0, 0, 44.66164, 1, 1, 760, 800
 1225597898, 0, 0.0002480891, 0.001114993, 5.250455E-05, -0.00182346, -0.0007299246, -9.804535, 0, 0, 44.66169, 1, 1, 999, 999
 1225597898, 1, 0.0004272482, 0.00140107, 3.127165E-05, -0.003739076, -0.004051699, -9.805361, 0, 0, 44.66169, 1, 1, 760, 800
 1225637882, 0, -0.001133855, 0.0003817609, -0.0001209613, -0.0008823699, -0.00216256, -9.807492, 0, 0, 44.66174, 1, 1, 999, 999
 1225637882, 1, -0.001348761, 0.0003395111, -8.951097E-05, 0.0007023611, -0.002375857, -9.807494, 0, 0, 44.66174, 1, 1, 760, 800
 1225677866, 0, 0.001365409, -0.0001366198, -0.0001922637, -0.0002509651, -0.001161408, -9.811129, 0, 0, 44.66178, 1, 1, 999, 999
 1225677866, 1, 0.001138485, 3.10094E-05, -0.0001532285, -0.0003248711, -0.002896821, -9.812027, 0, 0, 44.66178, 1, 1, 760, 800
 1225717850, 0, 0.001287129, -0.000802377, -0.0002127077, -0.001790861, -0.001893274, -9.812382, 0, 0, 44.66182, 1, 1, 999, 999
 1225717850, 1, 0.001151791, -0.0007155122, -0.0003700491, -0.001300816, 0.0002736269, -9.810133, 0, 0, 44.66182, 1, 1, 760, 800
 1225757834, 0, 0.001329156, -0.001094233, -0.0001877475, 0.0003635215, -0.001224979, -9.806936, 0, 0, 44.66187, 1, 1, 999, 999
 1225757834, 1, 0.001327685, -0.001033408, -7.479863E-05, -0.001964752, -0.003074017, -9.80712, 0, 0, 44.66187, 1, 1, 760, 800
 1225797818, 0, 0.001848068, -0.0008242931, -5.105355E-06, -0.002517757, -0.001372979, -9.808206, 0, 0, 44.66191, 1, 1, 999, 999
 1225797818, 1, 0.001829854, -0.0006118868, -6.259604E-05, 0.00188739, -0.001180633, -9.808406, 0, 0, 44.66191, 1, 1, 760, 800
 1225837802, 0, 0.001386235, -0.001460606, 0.0001450198, -0.0005954664, -0.0008639338, -9.81066, 0, 0, 44.66196, 1, 1, 999, 999
 1225837802, 1, 0.001391528, -0.001458635, 0.0002059639, -0.00102656, -0.0001086064, -9.81287, 0, 0, 44.66196, 1, 1, 760, 800
 1225877786, 0, 0.001437916, -0.001364154, 0.0003029178, -0.0006970106, -0.001141453, -9.809747, 0, 0, 44.66201, 1, 1, 999, 999
 1225877786, 1, 0.001568932, -0.001323066, 0.0002114058, -0.001998037, -0.002128981, -9.811251, 0, 0, 44.66201, 1, 1, 760, 800
 1225917770, 0, 0.001423838, -0.001418427, 0.0003583791, -0.0008544605, -0.001481735, -9.810383, 0, 0, 44.66205, 1, 1, 999, 999
 1225917770, 1, 0.001441902, -0.001350889, 0.0004619628, 0.0006811563, -0.001491001, -9.812611, 0, 0, 44.66205, 1, 1, 760, 800
 1225957754, 0, 0.002026822, -0.00132544, 0.0004363672, -0.001155928, -0.002633268, -9.810813, 0, 0, 44.66209, 1, 1, 999, 999
 1225957754, 1, 0.001910185, -0.001247135, 0.0002820162, 0.001531262, -0.001669433, -9.811599, 0, 0, 44.66209, 1, 1, 760, 800
 1225997738, 0, 0.0003259278, -0.0009250385, 0.0004495124, -0.0006990595, -0.002054103, -9.813166, 0, 0, 44.66214, 1, 1, 999, 999
 1225997738, 1, 0.0003433882, -0.001121585, 0.0005652568, -0.00171644, -0.0002659351, -9.811179, 0, 0, 44.66214, 1, 1, 760, 800
 1226037722, 0, -0.003031268, -0.001986904, 0.0005257246, -0.0007205168, -0.002978758, -9.81226, 0, 0, 44.66219, 1, 1, 999, 999
 1226037722, 1, -0.003094763, -0.001944578, 0.0006110262, -0.002005354, -0.0004994627, -9.814054, 0, 0, 44.66219, 1, 1, 760, 800
 1226077706, 0, -0.001916459, -0.00115834, 0.0006466203, -0.0003402945, -0.002513899, -9.810694, 0, 0, 44.66223, 1, 1, 999, 999
 1226077706, 1, -0.001920367, -0.001140577, 0.000636522, 0.001514794, -0.001402322, -9.809185, 0, 0, 44.66223, 1, 1, 760, 800
 1226117690, 0, -0.00158185, -0.001172223, 0.0006702989, -0.0005196586, -0.002284711, -9.811, 0, 0, 44.66228, 1, 1, 999, 999
 1226117690, 1, -0.001613906, -0.001160638, 0.0005853811, -0.001463845, -0.001836569, -9.809303, 0, 0, 44.66228, 1, 1, 760, 800
 1226157674, 0, -0.001665736, -0.001396888, 0.0007401329, -0.0009919107, -0.001816133, -9.813914, 0, 0, 44.66232, 1, 1, 999, 999
 1226157674, 1, -0.001464203, -0.001351636, 0.0007979276, -0.001665767, -0.001803689, -9.812531, 0, 0, 44.66232, 1, 1, 760, 800
 1226197658, 0, -0.00145579, -0.000910499, 0.0007828438, -0.0003358571, -0.001785511, -9.812817, 0, 0, 44.66236, 1, 1, 999, 999
 1226197658, 1, -0.001503922, -0.001010663, 0.0006332842, 0.002446483, -0.0008551375, -9.815739, 0, 0, 44.66236, 1, 1, 760, 800
 1226237642, 0, -0.002029194, -0.001925668, 0.0007965168, -0.001000475, -0.002271286, -9.810409, 0, 0, 44.66241, 1, 1, 999, 999
 1226237642, 1, -0.002027031, -0.001716161, 0.0007171341, 0.0006901596, -0.003136772, -9.809732, 0, 0, 44.66241, 1, 1, 760, 800
 1226277626, 0, -0.001126583, -0.00156038, 0.0007275547, 0.000769152, -0.003348072, -9.813412, 0, 0, 44.66246, 1, 1, 999, 999
 1226277626, 1, -0.00122969, -0.001631741, 0.0008702978, 0.0003372647, -0.00151093, -9.814899, 0, 0, 44.66245, 1, 1, 760, 800
 1226317610, 0, -0.0004464971, -0.0008751594, 0.0007145832, -0.0006124937, -0.001422738, -9.813881, 0, 0, 44.6625, 1, 1, 999, 999
 1226317610, 1, -0.0003348961, -0.0007400707, 0.0007445744, 0.002723848, -0.00534908, -9.813188, 0, 0, 44.6625, 1, 1, 760, 800
 1226357594, 0, -0.001171368, -0.0002364633, 0.0008099434, 0.001427803, -0.003123029, -9.815387, 0, 0, 44.66254, 1, 1, 999, 999
 1226357594, 1, -0.001250154, -0.000385865, 0.0008561378, 0.0003552061, -0.001557701, -9.816353, 0, 0, 44.66254, 1, 1, 760, 800
 1226397578, 0, -0.002249327, 0.0004911777, 0.0007695354, -0.0002426374, -0.001239696, -9.815777, 0, 0, 44.66259, 1, 1, 999, 999
 1226397578, 1, -0.002209728, 0.0004451535, 0.0009040742, 0.001336373, -0.002241835, -9.814243, 0, 0, 44.66259, 1, 1, 760, 800
 1226437562, 0, -0.002179805, 0.001361824, 0.0007945187, 0.0009276351, -0.002060952, -9.816444, 0, 0, 44.66264, 1, 1, 999, 999
 1226437562, 1, -0.002123091, 0.001383233, 0.0007193536, 0.0007269211, -0.002318387, -9.814758, 0, 0, 44.66264, 1, 1, 760, 800
 1226477546, 0, 0.001333708, 0.002976886, 0.0008102299, -7.670758E-05, -0.002994196, -9.814674, 0, 0, 44.66268, 1, 1, 999, 999
 1226477546, 1, 0.001129027, 0.002906829, 0.0006640739, 0.001918242, -0.003311453, -9.815585, 0, 0, 44.66268, 1, 1, 760, 800
 1226517530, 0, 0.001994371, 0.002013548, 0.0008974154, 3.678549E-05, -0.002220271, -9.814596, 0, 0, 44.66272, 1, 1, 999, 999
 1226517530, 1, 0.002101761, 0.001865051, 0.0008991091, -0.001483206, -0.002757802, -9.814031, 0, 0, 44.66272, 1, 1, 760, 800
 1226557514, 0, 0.002809615, 0.001020454, 0.0008478367, 0.0008308528, -0.002392719, -9.815289, 0, 0, 44.66277, 1, 1, 999, 999
 1226557514, 1, 0.002679197, 0.001114657, 0.0009327898, 0.0001914169, -0.00160115, -9.812414, 0, 0, 44.66277, 1, 1, 760, 800
 1226597498, 0, 0.001728882, -0.0006727105, 0.0008592769, 0.0007867671, -0.002919162, -9.81018, 0, 0, 44.66282, 1, 1, 999, 999
 1226597498, 1, 0.001828821, -0.0004882583, 0.0009426443, 0.0023305, -0.002951449, -9.811846, 0, 0, 44.66282, 1, 1, 760, 800
 1226637482, 0, 0.001232663, -0.0006598073, 0.0009166086, 0.001461048, -0.002096291, -9.812991, 0, 0, 44.66286, 1, 1, 999, 999
 1226637482, 1, 0.0008963758, -0.000864398, 0.001103967, 0.001798651, -0.0008989589, -9.815912, 0, 0, 44.66286, 1, 1, 760, 800
 1226677466, 0, 0.00137423, 0.001405677, 0.000875413, -0.0004414949, -0.002561119, -9.811458, 0, 0, 44.66291, 1, 1, 999, 999
 1226677466, 1, 0.001264518, 0.001357162, 0.0008180937, 0.003043467, -0.002134466, -9.810593, 0, 0, 44.6629, 1, 1, 760, 800
 1226717450, 0, -0.0002390692, -0.0001333188, 0.0008176134, 0.001871354, -0.002452589, -9.810809, 0, 0, 44.66295, 1, 1, 999, 999
 1226717450, 1, -0.000256096, -0.0003176603, 0.0008897537, 0.00186795, -0.003393573, -9.810623, 0, 0, 44.66295, 1, 1, 760, 800
 1226757434, 0, -0.0005692346, 6.902362E-05, 0.0007904801, 0.001371174, -0.001770702, -9.81031, 0, 0, 44.66299, 1, 1, 999, 999
 1226757434, 1, -0.0005249586, 0.0001445682, 0.000738248, 0.0031523, -0.001671303, -9.810774, 0, 0, 44.66299, 1, 1, 760, 800
 1226797418, 0, -0.00151382, -0.001929331, 0.0007505133, 0.0005569356, -0.001765624, -9.80813, 0, 0, 44.66304, 1, 1, 999, 999
 1226797418, 1, -0.001701827, -0.00217499, 0.0007190724, 0.003016519, -0.0002553354, -9.804857, 0, 0, 44.66304, 1, 1, 760, 800
 1226838235, 0, -0.002456088, -0.002708028, 0.0008146113, 0.001488111, -0.001971396, -9.809307, 0, 0, 44.66309, 1, 1, 999, 999
 1226838235, 1, -0.002239427, -0.003061309, 0.0008597631, 0.0006112126, -0.002097068, -9.810059, 0, 0, 44.66309, 1, 1, 760, 800
 1226878219, 0, 0.001812109, -0.000582842, 0.0007181412, 0.0002851484, -0.001936841, -9.79899, 0, 0, 44.66313, 1, 1, 999, 999
 1226878219, 1, 0.001784471, -0.0005530151, 0.0007355573, 0.0009634351, -0.003809582, -9.800722, 0, 0, 44.66313, 1, 1, 760, 800
 1226918203, 0, 0.001663993, -0.001004704, 0.0007613394, 0.001079505, -0.00217741, -9.79977, 0, 0, 44.66318, 1, 1, 999, 999
 1226918203, 1, 0.001641233, -0.001094596, 0.0008271061, -0.0002476405, -0.002107904, -9.800043, 0, 0, 44.66318, 1, 1, 760, 800
 1226958187, 0, 0.001599639, -0.001028338, 0.0007394282, 0.0003931115, -0.002658355, -9.799551, 0, 0, 44.66322, 1, 1, 999, 999
 1226958187, 1, 0.00159714, -0.0007536577, 0.0007192165, 0.002790241, -0.001331942, -9.799543, 0, 0, 44.66322, 1, 1, 760, 800
 1226998171, 0, 0.001586596, -0.0009518752, 0.0007258438, 0.001747906, -0.002249985, -9.79967, 0, 0, 44.66327, 1, 1, 999, 999
 1226998171, 1, 0.00170977, -0.0008701563, 0.0006635434, -0.0005477895, -0.003743524, -9.800578, 0, 0, 44.66327, 1, 1, 760, 800
 1227038155, 0, 0.00154052, -0.0008871179, 0.0007245152, 0.001351173, -0.001455629, -9.800721, 0, 0, 44.66331, 1, 1, 999, 999
 1227038155, 1, 0.001598965, -0.001008024, 0.0005232051, -0.0004034764, -0.0002946332, -9.797529, 0, 0, 44.66331, 1, 1, 760, 800
 1227078139, 0, 0.001518426, -0.0008563686, 0.0007910057, 0.001012314, -0.00202804, -9.800663, 0, 0, 44.66336, 1, 1, 999, 999
 1227078139, 1, 0.001416627, -0.0007197305, 0.0006323136, -0.0004744621, -0.002242386, -9.801144, 0, 0, 44.66336, 1, 1, 760, 800
 1227118123, 0, 0.001472014, -0.000827048, 0.0007480611, 0.001391604, -0.001714195, -9.799982, 0, 0, 44.6634, 1, 1, 999, 999
 1227118123, 1, 0.001393094, -0.000695136, 0.0006735065, 0.001886998, -0.002578138, -9.798608, 0, 0, 44.6634, 1, 1, 760, 800
 1227158107, 0, 0.001454792, -0.0007762191, 0.0007690805, 0.001203975, -0.001592378, -9.800591, 0, 0, 44.66344, 1, 1, 999, 999
 1227158107, 1, 0.001609134, -0.0008266186, 0.0008206033, 0.003074068, -0.001230378, -9.800791, 0, 0, 44.66344, 1, 1, 760, 800
 1227198091, 0, 0.001509484, 0.002021801, 0.0007413456, 0.0008524619, -0.00223597, -9.803459, 0, 0, 44.66349, 1, 1, 999, 999
 1227198091, 1, 0.00127431, 0.002254934, 0.000729355, 0.001006348, -0.002241926, -9.802868, 0, 0, 44.66349, 1, 1, 760, 800
 1227238075, 0, -0.004180545, 0.0001215858, 0.0008561125, 0.00176973, -0.002162421, -9.803889, 0, 0, 44.66353, 1, 1, 999, 999
 1227238075, 1, -0.004103799, 8.317048E-05, 0.0007907171, -0.0003723209, -0.00135407, -9.804215, 0, 0, 44.66354, 1, 1, 760, 800
 1227278059, 0, -3.702179E-05, 0.0002202413, 0.001000802, 0.001415368, -0.002645488, -9.801047, 0, 0, 44.66358, 1, 1, 999, 999
 1227278059, 1, -7.324204E-05, -3.703637E-05, 0.001087917, 0.0007148872, -0.000212856, -9.80174, 0, 0, 44.66358, 1, 1, 760, 800
 1227318043, 0, -0.000492598, 0.001493895, 0.0008414219, 0.0008934481, -0.002539696, -9.803275, 0, 0, 44.66362, 1, 1, 999, 999
 1227318043, 1, -0.0003932386, 0.001628588, 0.0009123768, 0.001740603, -0.002173058, -9.804698, 0, 0, 44.66362, 1, 1, 760, 800
 1227358027, 0, -0.0004262957, 0.003416144, 0.0006334003, 0.0014388, -0.003170155, -9.808599, 0, 0, 44.66367, 1, 1, 999, 999
 1227358027, 1, -0.0005703988, 0.003368991, 0.0005628953, 0.0001085103, -0.001776165, -9.808325, 0, 0, 44.66367, 1, 1, 760, 800
 1227398011, 0, -0.0003806203, 0.0030345, 0.0003880462, 0.001749856, -0.001998974, -9.806462, 0, 0, 44.66371, 1, 1, 999, 999
 1227398011, 1, -0.0005819548, 0.003168006, 0.0002565734, 0.003587914, -0.0005276679, -9.808414, 0, 0, 44.66372, 1, 1, 760, 800
 1227437995, 0, -0.002429054, 0.001683902, 0.0001212414, 0.0005789271, -0.002089682, -9.808836, 0, 0, 44.66376, 1, 1, 999, 999
 1227437995, 1, -0.002456846, 0.001797675, 0.0002127187, 0.002671111, -0.00395243, -9.805828, 0, 0, 44.66376, 1, 1, 760, 800
 1227477979, 0, -0.002247775, -0.001028115, -3.95836E-05, 0.001357914, -0.002485477, -9.802073, 0, 0, 44.6638, 1, 1, 1000, 1000
 1227477979, 1, -0.002315532, -0.001086835, -0.0002388033, 0.00142862, -1.170104E-05, -9.802603, 0, 0, 44.6638, 1, 1, 760, 800
 1227517963, 0, -0.002207971, -0.0008433214, -8.480729E-05, 0.002437215, -0.002779893, -9.802423, 0, 0, 44.66385, 1, 1, 1000, 1000
 1227517963, 1, -0.002230117, -0.0007987161, 0.000118987, 0.001801046, -0.00541947, -9.800735, 0, 0, 44.66385, 1, 1, 760, 800
 1227557947, 0, -0.002159121, -0.0008296221, -4.642411E-05, 0.001738551, -0.003080722, -9.801489, 0, 0, 44.66389, 1, 1, 1000, 1000
 1227557947, 1, -0.001999127, -0.0007419446, -9.581103E-05, 8.464493E-05, -0.004468456, -9.801857, 0, 0, 44.66389, 1, 1, 760, 800
 1227597931, 0, -0.00203065, 0.000295458, -6.573305E-05, 0.0009664963, -0.002905117, -9.801777, 0, 0, 44.66394, 1, 1, 1000, 1000
 1227597931, 1, -0.002048975, 0.0002527242, -0.0001434624, 0.002659616, -0.004873916, -9.803168, 0, 0, 44.66394, 1, 1, 760, 800
 1227637915, 0, -0.001995131, 0.0002076321, -0.0001231046, 0.0008450547, -0.002439036, -9.802187, 0, 0, 44.66398, 1, 1, 1000, 1000
 1227637915, 1, -0.002015434, 0.0003836925, -7.797746E-05, -0.00101872, -0.00263807, -9.80276, 0, 0, 44.66398, 1, 1, 760, 800
 1227677899, 0, -0.001925361, 0.0002001003, -7.687575E-05, 0.001107771, -0.003028097, -9.802179, 0, 0, 44.66403, 1, 1, 1000, 1000
 1227677899, 1, -0.001828651, 0.0001764714, -9.590223E-05, 0.0008168687, -0.00345359, -9.802805, 0, 0, 44.66403, 1, 1, 760, 800
 1227717883, 0, -0.001300649, 0.0002488413, -3.142171E-05, 0.001327834, -0.002765791, -9.805694, 0, 0, 44.66407, 1, 1, 1000, 1000
 1227717883, 1, -0.00132676, 0.0002006907, -2.533348E-05, 0.002155338, -0.00171484, -9.804001, 0, 0, 44.66407, 1, 1, 760, 800
 1227757867, 0, 0.0001885075, 0.0002498348, -1.538527E-05, 0.001348819, -0.002715926, -9.803518, 0, 0, 44.66412, 1, 1, 1000, 1000
 1227757867, 1, 0.0001566785, 0.0002618062, 0.0002109742, 0.00211752, -0.003388155, -9.799972, 0, 0, 44.66412, 1, 1, 760, 800
 1227797851, 0, 0.001502194, 0.001798838, -8.480107E-05, 0.001819623, -0.003042803, -9.81014, 0, 0, 44.66416, 1, 1, 1000, 1000
 1227797851, 1, 0.001495041, 0.00189722, -3.65975E-06, 0.0004187893, -0.001512241, -9.81008, 0, 0, 44.66416, 1, 1, 760, 800
 1227837835, 0, 0.001874354, 0.002601845, -2.403998E-05, 0.001930599, -0.002404095, -9.817873, 0, 0, 44.66421, 1, 1, 1000, 1000
 1227837835, 1, 0.001869878, 0.002775067, -1.816651E-05, -0.0001289907, -0.003979626, -9.81875, 0, 0, 44.66421, 1, 1, 760, 800
 1227877819, 0, 0.002543934, 0.00365439, 7.872235E-05, 0.001279703, -0.001810523, -9.817801, 0, 0, 44.66425, 1, 1, 1000, 1000
 1227877819, 1, 0.00236894, 0.003409955, 4.208797E-05, 0.0006216434, -0.001830858, -9.81521, 0, 0, 44.66425, 1, 1, 760, 800
 1227917803, 0, 0.002969875, 0.003001823, 8.054999E-05, 0.0004009297, -0.001346914, -9.815706, 0, 0, 44.6643, 1, 1, 1000, 1000
 1227917803, 1, 0.002942456, 0.003130476, 0.0001730891, 0.002747495, -0.001929917, -9.815054, 0, 0, 44.6643, 1, 1, 760, 800
 1227957787, 0, 0.002483931, 0.00268006, 8.912838E-05, 0.00136052, -0.001932498, -9.814522, 0, 0, 44.66434, 1, 1, 1000, 1000
 1227957787, 1, 0.002510583, 0.002756379, 6.369015E-05, 0.004812879, -0.003149223, -9.815234, 0, 0, 44.66434, 1, 1, 760, 800
 1227997771, 0, 0.002127972, 0.00175945, 0.0001587678, 0.001733669, -0.001463639, -9.81865, 0, 0, 44.66439, 1, 1, 1000, 1000
 1227997771, 1, 0.002002956, 0.001740891, 3.198218E-05, 0.00025261, -0.001214284, -9.820671, 0, 0, 44.66439, 1, 1, 760, 800
 1228037755, 0, 0.003264853, 0.001409478, 0.0001280624, 0.001814881, -0.003197118, -9.8282, 0, 0, 44.66443, 1, 1, 1000, 1000
 1228037755, 1, 0.003145153, 0.001357795, 0.0001527841, -0.000495551, -0.001522743, -9.825401, 0, 0, 44.66443, 1, 1, 760, 800
 1228077739, 0, 0.001596612, 0.000717069, 0.0001733687, 0.0005795396, -0.0006805076, -9.902926, 0, 0, 44.66447, 1, 1, 1000, 1000
 1228077739, 1, 0.001629218, 0.0006866402, 0.0002901781, 0.0002912133, -0.0006879335, -9.902764, 0, 0, 44.66447, 1, 1, 760, 800
 1228117723, 0, -0.0004729058, -0.0007381538, 0.0002430502, 0.001301444, -0.00128408, -10.00504, 0, 0, 44.66452, 1, 1, 1000, 1000
 1228117723, 1, -0.0004354517, -0.000708448, 0.0003558057, 0.002501603, 0.0003498187, -10.00494, 0, 0, 44.66452, 1, 1, 760, 800
 1228157707, 0, -0.00214504, -0.001549328, 0.0002170098, 0.001734191, -0.000942148, -10.02282, 0, 0, 44.66457, 1, 1, 1000, 1000
 1228157707, 1, -0.002079119, -0.00152475, 0.0001268781, -0.002731098, -0.002722519, -10.02252, 0, 0, 44.66457, 1, 1, 760, 800
 1228197691, 0, -0.0005753512, 0.001333385, 0.0002955107, 0.0007920815, -0.002386424, -9.997666, 0, 0, 44.66461, 1, 1, 1000, 1000
 1228197691, 1, -0.0007830425, 0.001236235, 0.0001848065, 0.00116192, -0.001563134, -9.998817, 0, 0, 44.66461, 1, 1, 760, 800
 1228237675, 0, -0.003167244, -0.00107141, 0.0003349255, 0.001503182, -0.002440362, -9.96777, 0, 0, 44.66465, 1, 1, 1000, 1000
 1228237675, 1, -0.003202405, -0.001057353, 0.0003074878, 0.0002271321, -0.002721172, -9.964028, 0, 0, 44.66465, 1, 1, 760, 800
 1228277659, 0, -0.002967905, -0.0009131936, 0.0003838377, 0.001293673, -0.001691587, -9.955453, 0, 0, 44.6647, 1, 1, 1000, 1000
 1228277659, 1, -0.002874522, -0.0009101951, 0.000397345, 0.0009632811, -0.003355552, -9.953074, 0, 0, 44.6647, 1, 1, 760, 800
 1228317643, 0, -0.001838691, -0.003284057, 0.0003224673, 0.0008285174, -0.001766925, -9.92754, 0, 0, 44.66474, 1, 1, 1000, 1000
 1228317643, 1, -0.001689934, -0.003271267, 0.0003987896, 0.0002619934, -0.001074904, -9.925482, 0, 0, 44.66474, 1, 1, 760, 800
 1228357627, 0, -0.002745809, -0.0007562249, 0.0002495718, 0.001414122, -0.001644916, -9.911586, 0, 0, 44.66479, 1, 1, 1000, 1000
 1228357627, 1, -0.002932169, -0.0005040145, -1.157692E-05, 0.002816305, -0.003090231, -9.913237, 0, 0, 44.66479, 1, 1, 760, 800
 1228397611, 0, -0.0009133182, -0.0005935371, 0.0002051124, 0.0002354576, -0.001307866, -9.894297, 0, 0, 44.66483, 1, 1, 1000, 1000
 1228397611, 1, -0.0008427008, -0.0004889848, 0.0003403017, 0.002148685, -0.001970923, -9.89267, 0, 0, 44.66483, 1, 1, 760, 800
 1228437595, 0, 0.00136868, -0.003754308, 0.0003237475, 0.001924391, -0.002335729, -9.877478, 0, 0, 44.66488, 1, 1, 1000, 1000
 1228437595, 1, 0.001484364, -0.003818557, 0.0002862561, -0.001251805, -0.001671593, -9.878561, 0, 0, 44.66488, 1, 1, 760, 800
 1228477579, 0, 0.001933704, -0.003546583, 0.0003660113, 0.0009351984, -0.001026293, -9.872378, 0, 0, 44.66492, 1, 1, 999, 999
 1228477579, 1, 0.00177147, -0.003436099, 0.0001725886, 0.001357972, -0.004014092, -9.872313, 0, 0, 44.66492, 1, 1, 760, 800
 1228517563, 0, 0.0007806098, -0.0003415823, 0.0003825116, 0.001787908, -0.001812033, -9.844556, 0, 0, 44.66497, 1, 1, 999, 999
 1228517563, 1, 0.000668689, -0.00040108, 0.0004294471, 0.000159018, -0.0001208279, -9.844417, 0, 0, 44.66497, 1, 1, 760, 800
 1228557547, 0, 0.003233661, -0.0004702301, 0.0004071323, 0.001353537, -0.001077702, -9.841048, 0, 0, 44.66501, 1, 1, 999, 999
 1228557547, 1, 0.003342683, -0.0004816183, 0.0002462391, 0.003047265, -0.00118716, -9.841713, 0, 0, 44.66501, 1, 1, 760, 800
 1228597531, 0, 0.003058039, -0.001076242, 0.0004841055, 0.001050218, -0.0008820671, -9.836876, 0, 0, 44.66505, 1, 1, 999, 999
 1228597531, 1, 0.002966021, -0.0009964698, 0.0005132616, 0.003441872, -0.001576578, -9.837984, 0, 0, 44.66505, 1, 1, 760, 800
 1228637515, 0, 0.002851838, -0.001938825, 0.0005773869, 0.001636586, -0.002420786, -9.814157, 0, 0, 44.6651, 1, 1, 999, 999
 1228637515, 1, 0.00278531, -0.001740169, 0.0005650329, 0.0004279086, -0.002174384, -9.817165, 0, 0, 44.6651, 1, 1, 760, 800
 1228677499, 0, -0.001129011, 0.0008456099, 0.0004938663, 0.0007846047, -0.001180543, -9.805151, 0, 0, 44.66515, 1, 1, 999, 999
 1228677499, 1, -0.00118026, 0.0008494286, 0.0003016214, -0.0007259056, -0.002915814, -9.805382, 0, 0, 44.66515, 1, 1, 760, 800
 1228717483, 0, -0.0008396569, 0.000669241, 0.000527832, 0.0008080247, -0.0009177506, -9.807671, 0, 0, 44.66519, 1, 1, 999, 999
 1228717483, 1, -0.0008704143, 0.000603403, 0.0003812173, -0.0002265799, -9.396189E-05, -9.807224, 0, 0, 44.66519, 1, 1, 760, 800
 1228757467, 0, -0.0007931985, 0.0006057741, 0.000533988, 0.0001893791, -0.00212217, -9.805488, 0, 0, 44.66523, 1, 1, 999, 999
 1228757467, 1, -0.0007963461, 0.0008161842, 0.000548273, 0.00229146, 1.098736E-05, -9.806885, 0, 0, 44.66523, 1, 1, 760, 800
 1228797451, 0, -0.0008757428, -0.001562784, 0.0005084752, 0.001980425, -0.001304736, -9.78616, 0, 0, 44.66528, 1, 1, 999, 999
 1228797451, 1, -0.0009167242, -0.001477048, 0.0005198804, 0.003527832, -0.0003837113, -9.787405, 0, 0, 44.66528, 1, 1, 760, 800
 1228837435, 0, 0.0007254106, -0.003896346, 0.0005473545, 0.001460606, -0.001709194, -9.785084, 0, 0, 44.66533, 1, 1, 999, 999
 1228837435, 1, 0.0009067772, -0.004016344, 0.000636377, 0.00106588, 0.0007599507, -9.783424, 0, 0, 44.66532, 1, 1, 760, 800
 1228877419, 0, 0.002170741, -0.0009943058, 0.0006036695, 0.002243107, -0.001117467, -9.773975, 0, 0, 44.66537, 1, 1, 999, 999
 1228877419, 1, 0.002214574, -0.0009298916, 0.0007448255, 0.0008030717, -0.0007137034, -9.773909, 0, 0, 44.66537, 1, 1, 760, 800
 1228918236, 0, 0.002048783, -0.00104538, 0.0005083436, 0.0009712336, 9.620424E-05, -9.775344, 0, 0, 44.66541, 1, 1, 999, 999
 1228918236, 1, 0.002101635, -0.001005243, 0.000596421, 0.000503561, 0.0005497813, -9.777317, 0, 0, 44.66541, 1, 1, 760, 800
 1228958220, 0, 0.002043151, -0.001003766, 0.0006127154, 0.0007129238, -0.001069284, -9.77577, 0, 0, 44.66546, 1, 1, 999, 999
 1228958220, 1, 0.002079316, -0.001103581, 0.000633112, -0.001198137, -0.001988385, -9.773901, 0, 0, 44.66546, 1, 1, 760, 800
 1228998204, 0, 0.00199604, -0.000974464, 0.0005199353, 0.001764867, -0.0008924374, -9.776205, 0, 0, 44.6655, 1, 1, 999, 999
 1228998204, 1, 0.001956078, -0.0009717901, 0.0005427554, 0.002338148, 0.0008814937, -9.777843, 0, 0, 44.6655, 1, 1, 760, 800
 1229038188, 0, 0.0005368225, -0.0002518573, 0.0005284561, 0.001266423, -0.0004825807, -9.770047, 0, 0, 44.66555, 1, 1, 999, 999
 1229038188, 1, 0.0006114583, -0.0004344463, 0.0006676829, -0.001402514, -0.001119426, -9.768781, 0, 0, 44.66555, 1, 1, 760, 800
 1229078172, 0, -0.00130636, 0.0010095, 0.0005910022, 0.0003048702, -0.00031561, -9.759542, 0, 0, 44.66559, 1, 1, 999, 999
 1229078172, 1, -0.001170906, 0.0007784731, 0.0005733785, 0.0009347814, -0.0008352915, -9.758929, 0, 0, 44.66559, 1, 1, 760, 800
 1229118156, 0, 0.001764183, 0.0001454783, 0.0004705928, -0.0001001995, -0.001084342, -9.76322, 0, 0, 44.66564, 1, 1, 999, 999
 1229118156, 1, 0.001801298, 0.0001090933, 0.0006469645, -0.0005570751, 0.0003300179, -9.762198, 0, 0, 44.66564, 1, 1, 760, 800
 1229158140, 0, 0.001227087, 0.000294143, 0.0004702942, 0.0002050914, -0.001449696, -9.766138, 0, 0, 44.66568, 1, 1, 999, 999
 1229158140, 1, 0.001430233, 0.000258666, 0.0004174288, -0.002175407, 0.001448736, -9.767212, 0, 0, 44.66568, 1, 1, 760, 800
 1229198124, 0, 0.002061958, -0.0005872102, 0.000390421, 6.523293E-06, -0.0005796051, -9.767526, 0, 0, 44.66573, 1, 1, 999, 999
 1229198124, 1, 0.001836376, -0.0003061848, 0.0003892817, 0.001822943, -0.0001156277, -9.766644, 0, 0, 44.66573, 1, 1, 760, 800
 1229238108, 0, 0.002494092, -0.0004985352, 0.0003679426, -0.0003480691, -0.0002846405, -9.768398, 0, 0, 44.66577, 1, 1, 999, 999
 1229238108, 1, 0.00244198, -0.0003555003, 0.0004647193, 0.001257648, -0.001481231, -9.769464, 0, 0, 44.66577, 1, 1, 760, 800
 1229278092, 0, 0.002012337, -0.0007481339, 0.0003565475, -4.482165E-06, -0.0002401215, -9.774271, 0, 0, 44.66581, 1, 1, 999, 999
 1229278092, 1, 0.001839563, -0.0009081594, 0.0003068908, 0.0002244456, -0.0004193654, -9.774559, 0, 0, 44.66581, 1, 1, 760, 800
 1229318076, 0, 0.002495417, 0.0002383095, 0.0004305904, 0.0003940892, -0.000326441, -9.772186, 0, 0, 44.66586, 1, 1, 999, 999
 1229318076, 1, 0.00257385, 0.0005299234, 0.0004846118, -0.0004581759, 0.0005768177, -9.773237, 0, 0, 44.66586, 1, 1, 760, 800
 1229358060, 0, -0.001097048, -0.001468349, 0.000346387, -0.000225537, -0.0004094003, -9.780748, 0, 0, 44.6659, 1, 1, 999, 999
 1229358060, 1, -0.001188251, -0.00136341, 0.0005346137, 0.002092602, -0.0003549987, -9.776441, 0, 0, 44.6659, 1, 1, 760, 800
 1229398044, 0, -6.088832E-05, 0.001181994, 0.0003897278, -0.0006075079, -0.0002564605, -9.784777, 0, 0, 44.66595, 1, 1, 999, 999
 1229398044, 1, -0.0001811844, 0.001313106, 0.0004987821, -0.0003686413, -0.0005378943, -9.785841, 0, 0, 44.66595, 1, 1, 760, 800
 1229438028, 0, -0.000172201, 0.00107615, 0.0004631802, -0.000623893, -0.0001204157, -9.78558, 0, 0, 44.66599, 1, 1, 999, 999
 1229438028, 1, -0.0002432544, 0.0009696741, 0.0003568582, -0.002186567, -0.0006207841, -9.784341, 0, 0, 44.66599, 1, 1, 760, 800
 1229478012, 0, 0.0006448244, 0.001389997, 0.0004535433, -0.0007872387, -0.0004557993, -9.780157, 0, 0, 44.66604, 1, 1, 1000, 1000
 1229478012, 1, 0.0005594763, 0.001528049, 0.0004083898, -0.001696022, -0.002381775, -9.780312, 0, 0, 44.66604, 1, 1, 760, 800
 1229517996, 0, 0.002401247, 0.00322959, 0.0004422545, -0.0004939243, -0.001357769, -9.771046, 0, 0, 44.66608, 1, 1, 1000, 1000
 1229517996, 1, 0.002186815, 0.003090368, 0.0006453955, -4.431792E-05, 0.0006403816, -9.771105, 0, 0, 44.66608, 1, 1, 760, 800
 1229557980, 0, 0.001703388, -8.552869E-05, 0.0003669774, -0.001366736, -0.0002058712, -9.787751, 0, 0, 44.66613, 1, 1, 1000, 1000
 1229557980, 1, 0.001870982, -4.876604E-05, 0.0003274423, -0.003212983, -0.001607393, -9.786932, 0, 0, 44.66613, 1, 1, 760, 800
 1229597964, 0, 0.001828205, 7.592725E-05, 0.0003842174, -0.0002036082, -0.0003614739, -9.787552, 0, 0, 44.66617, 1, 1, 1000, 1000
 1229597964, 1, 0.001750663, -6.573826E-05, 0.0003998742, -0.001111888, -0.0005303264, -9.787886, 0, 0, 44.66617, 1, 1, 760, 800
 1229637948, 0, 0.001743709, -1.594196E-05, 0.0003780913, -0.0003802104, -0.0006147702, -9.787748, 0, 0, 44.66621, 1, 1, 1000, 1000
 1229637948, 1, 0.00179924, 1.088021E-05, 0.0003469386, -0.002326852, -0.0009625421, -9.78559, 0, 0, 44.66621, 1, 1, 760, 800
 1229677932, 0, 0.001721755, 0.00321911, 0.0003996915, -0.001266615, 0.0001054415, -9.788601, 0, 0, 44.66626, 1, 1, 1000, 1000
 1229677932, 1, 0.001631563, 0.003207413, 0.0004637767, -0.002766368, -0.001190248, -9.790143, 0, 0, 44.66626, 1, 1, 760, 800
 1229717916, 0, 0.00141954, 0.0029993, 0.0004031385, -0.0007722829, -0.0004578712, -9.786916, 0, 0, 44.66631, 1, 1, 1000, 1000
 1229717916, 1, 0.001335159, 0.002937822, 0.0004734535, -0.0003937613, 0.001490083, -9.785388, 0, 0, 44.66631, 1, 1, 760, 800
 1229757900, 0, 0.001486574, 0.002541518, 0.0003134967, -0.00101377, 0.0005684763, -9.786921, 0, 0, 44.66635, 1, 1, 1000, 1000
 1229757900, 1, 0.001283525, 0.002650623, 0.0002834892, -0.002323055, 0.0009424709, -9.784649, 0, 0, 44.66635, 1, 1, 760, 800
 1229797884, 0, 0.001561853, -0.0002453149, 0.0004065034, -0.00122879, -0.001119602, -9.789307, 0, 0, 44.66639, 1, 1, 1000, 1000
 1229797884, 1, 0.001457487, -0.0001534493, 0.0002592954, -0.0002503413, -0.0007885395, -9.789985, 0, 0, 44.66639, 1, 1, 760, 800
 1229837868, 0, -0.003214579, -0.0001446834, 0.0002582528, -0.001645358, -0.0001777601, -9.789331, 0, 0, 44.66644, 1, 1, 1000, 1000
 1229837868, 1, -0.003251828, -8.370652E-05, 0.0003758773, -0.002123136, 0.001933911, -9.787539, 0, 0, 44.66644, 1, 1, 760, 800
 1229877852, 0, -0.0001274712, -4.072407E-05, 0.0001803549, -0.001128694, -0.001269878, -9.790722, 0, 0, 44.66648, 1, 1, 1000, 1000
 1229877852, 1, -0.0002708717, -0.0001076824, 0.0001434241, -0.003675302, -0.0001155264, -9.791401, 0, 0, 44.66648, 1, 1, 760, 800
 1229917836, 0, -0.0001830257, -0.0001461942, 0.0002063907, -0.001350073, -0.0007973401, -9.79183, 0, 0, 44.66653, 1, 1, 1000, 1000
 1229917836, 1, -0.0002088304, -0.0001630032, 0.0003206329, -0.002740771, -0.001229062, -9.791343, 0, 0, 44.66653, 1, 1, 760, 800
 1229957820, 0, -0.0001944835, -8.046792E-05, 0.0001815525, -0.001248512, -0.0009830181, -9.791316, 0, 0, 44.66657, 1, 1, 1000, 1000
 1229957820, 1, 8.581785E-05, -0.0001078288, 0.0001205357, -0.003494808, 0.001193919, -9.793671, 0, 0, 44.66657, 1, 1, 760, 800
 1229997804, 0, -0.0001902538, -2.656406E-05, 0.0001909239, -0.001682549, -0.0007822778, -9.792183, 0, 0, 44.66661, 1, 1, 1000, 1000
 1229997804, 1, -0.0002853619, -3.144659E-06, 7.26757E-05, -0.001575497, -0.003265049, -9.794195, 0, 0, 44.66661, 1, 1, 760, 800
 1230037788, 0, -0.000135517, 0.002124702, 0.0001305812, -0.002183324, 1.198077E-05, -9.797523, 0, 0, 44.66666, 1, 1, 1000, 1000
 1230037788, 1, -0.0001418621, 0.002186274, 0.0001298514, -0.001591633, -0.00180349, -9.796148, 0, 0, 44.66666, 1, 1, 760, 800
 1230077772, 0, 0.0004522612, 0.004241545, 0.0001083832, -0.001510064, -0.001466248, -9.798579, 0, 0, 44.6667, 1, 1, 1000, 1000
 1230077772, 1, 0.0005707734, 0.004277419, 0.0001827341, -0.004520607, -0.002320688, -9.800147, 0, 0, 44.6667, 1, 1, 760, 800
 1230117756, 0, 0.002267724, 0.006467689, 0.000192322, -0.001921259, -0.000835693, -9.808928, 0, 0, 44.66675, 1, 1, 1000, 1000
 1230117756, 1, 0.002365483, 0.006514479, 0.0002136647, -0.003803698, -0.0009302259, -9.808897, 0, 0, 44.66675, 1, 1, 760, 800
 1230157740, 0, 0.000702052, 0.001046032, 0.0002767503, -0.002657713, -0.0005513327, -9.807857, 0, 0, 44.66679, 1, 1, 1000, 1000
 1230157740, 1, 0.0003722909, 0.0009104368, 0.0002700714, -0.002138794, -0.0007691543, -9.810855, 0, 0, 44.66679, 1, 1, 760, 800
 1230197724, 0, -3.14311E-05, -0.0009557353, 0.000279287, -0.002278203, -0.002178269, -9.807564, 0, 0, 44.66684, 1, 1, 1000, 1000
 1230197724, 1, 6.375938E-05, -0.0008385559, 0.0001576285, -0.002136903, -0.003253741, -9.807409, 0, 0, 44.66684, 1, 1, 760, 800
 1230237708, 0, -0.0007916985, -0.001035598, 0.000312762, -0.002015132, -0.0003052808, -9.808198, 0, 0, 44.66688, 1, 1, 1000, 1000
 1230237708, 1, -0.0009116272, -0.001081063, 0.0005378944, -0.00163489, 0.001578522, -9.809456, 0, 0, 44.66688, 1, 1, 760, 800
 1230277692, 0, -0.001329736, -0.0009919788, 0.0003349739, -0.002571061, -0.0004816907, -9.807649, 0, 0, 44.66693, 1, 1, 1000, 1000
 1230277692, 1, -0.001291394, -0.001080135, 0.0002281869, -0.000225944, 0.001603545, -9.808562, 0, 0, 44.66693, 1, 1, 760, 800
 1230317676, 0, -0.002004059, -0.0007201505, 0.0004627467, -0.002022952, -0.001590261, -9.810362, 0, 0, 44.66697, 1, 1, 1000, 1000
 1230317676, 1, -0.001921498, -0.0006006761, 0.0005473243, -0.00205889, -0.002232104, -9.81246, 0, 0, 44.66697, 1, 1, 760, 800
 1230357660, 0, -0.001516103, -0.0007697216, 0.0005566502, -0.002656205, -0.001061772, -9.811953, 0, 0, 44.66702, 1, 1, 1000, 1000
 1230357660, 1, -0.001585788, -0.0009072683, 0.0003551182, -0.002104466, -0.002380606, -9.811614, 0, 0, 44.66702, 1, 1, 760, 800
 1230397644, 0, -0.001535119, -0.001051689, 0.0006435202, -0.002257778, -0.0008022657, -9.813147, 0, 0, 44.66706, 1, 1, 1000, 1000
 1230397644, 1, -0.001367493, -0.000854491, 0.0007081657, -2.341497E-05, -0.001117006, -9.812857, 0, 0, 44.66706, 1, 1, 760, 800
 1230437628, 0, -0.001924009, -0.0003880267, 0.0006577924, -0.002906129, -0.0004881353, -9.814482, 0, 0, 44.6671, 1, 1, 1000, 1000
 1230437628, 1, -0.002095569, -0.0002542478, 0.0006113285, -0.003356667, -0.001537696, -9.81721, 0, 0, 44.6671, 1, 1, 760, 800
 1230477612, 0, -0.001622186, 0.001006908, 0.0007194256, -0.001971208, -0.0001932885, -9.816025, 0, 0, 44.66715, 1, 1, 999, 999
 1230477612, 1, -0.001621429, 0.001180556, 0.0006498456, -0.002526546, 0.0003414327, -9.814886, 0, 0, 44.66715, 1, 1, 760, 800
 1230517596, 0, -0.000455171, 0.003274006, 0.0007154437, -0.002851525, -0.0005433839, -9.815853, 0, 0, 44.66719, 1, 1, 999, 999
 1230517596, 1, -0.0003328295, 0.003488239, 0.0006435608, -0.000755843, -0.001278498, -9.816263, 0, 0, 44.66719, 1, 1, 760, 800
 1230557580, 0, 0.001079871, 0.001674836, 0.0008350139, -0.00308079, -0.0009155283, -9.823433, 0, 0, 44.66724, 1, 1, 999, 999
 1230557580, 1, 0.001015133, 0.001821354, 0.0008412645, -0.001977318, -0.000669079, -9.82293, 0, 0, 44.66724, 1, 1, 760, 800
 1230597564, 0, 0.0009624138, 0.001872022, 0.000965538, -0.002100319, -0.0004094194, -9.819489, 0, 0, 44.66728, 1, 1, 999, 999
 1230597564, 1, 0.001050224, 0.001827732, 0.001044848, -0.0009205065, 0.001331213, -9.819586, 0, 0, 44.66728, 1, 1, 760, 800
 1230637548, 0, 0.0008956434, 0.00269647, 0.001345799, -0.001845451, 0.00029129, -9.819221, 0, 0, 44.66732, 1, 1, 999, 999
 1230637548, 1, 0.001113197, 0.002804874, 0.001377263, -0.0009847918, -0.0005671095, -9.817698, 0, 0, 44.66732, 1, 1, 760, 800
 1230677532, 0, 0.0009789376, 0.002002023, 0.001700008, -0.002004743, 0.000700559, -9.818584, 0, 0, 44.66737, 1, 1, 999, 999
 1230677532, 1, 0.0009010228, 0.00204, 0.001660535, -0.001300187, -0.0005988611, -9.819468, 0, 0, 44.66737, 1, 1, 760, 800
 1230717516, 0, -0.0002852543, 0.000482409, 0.002064014, -0.002686214, -0.0002154321, -9.815204, 0, 0, 44.66742, 1, 1, 999, 999
 1230717516, 1, -0.0005268039, 0.0003989773, 0.001922203, -0.002960118, -0.001010255, -9.816053, 0, 0, 44.66741, 1, 1, 760, 800
 1230757500, 0, -0.001725951, -2.20248E-05, 0.002056675, -0.002827635, -0.0007322227, -9.813721, 0, 0, 44.66746, 1, 1, 999, 999
 1230757500, 1, -0.001731523, -0.0003689007, 0.002086272, -0.003523108, 0.0003000092, -9.811746, 0, 0, 44.66746, 1, 1, 760, 800
 1230797484, 0, -0.001293639, -0.0009082375, 0.001922638, -0.0026067, -6.845345E-05, -9.837006, 0, 0, 44.6675, 1, 1, 999, 999
 1230797484, 1, -0.001368782, -0.0008038473, 0.002133244, -0.003912546, -0.001420031, -9.835961, 0, 0, 44.6675, 1, 1, 760, 800
 1230837468, 0, -0.002062054, 0.00253099, 0.001827022, -0.00326689, -0.0007744852, -9.825448, 0, 0, 44.66755, 1, 1, 999, 999
 1230837468, 1, -0.001857556, 0.002547701, 0.001806814, -0.001369982, -0.00171313, -9.824864, 0, 0, 44.66755, 1, 1, 760, 800
 1230877452, 0, -0.001221858, 0.002364855, 0.001776729, -0.003232542, -0.0006909819, -9.822633, 0, 0, 44.66759, 1, 1, 999, 999
 1230877452, 1, -0.001222776, 0.002573637, 0.001929655, -0.001059941, -0.002203983, -9.821424, 0, 0, 44.66759, 1, 1, 760, 800
 1230917436, 0, 0.0003412201, 0.00233276, 0.001780305, -0.003665206, -0.0001905742, -9.823759, 0, 0, 44.66764, 1, 1, 999, 999
 1230917436, 1, 0.000410063, 0.002381744, 0.001733762, -0.0006018459, -4.278422E-05, -9.824618, 0, 0, 44.66763, 1, 1, 760, 800
 1230957420, 0, 0.001928013, 0.002273194, 0.001572461, -0.003204104, 0.000298827, -9.816659, 0, 0, 44.66768, 1, 1, 999, 999
 1230957420, 1, 0.002168544, 0.002166252, 0.001644775, -0.003847268, -6.027357E-05, -9.81744, 0, 0, 44.66768, 1, 1, 760, 800
 1230998237, 0, 0.003392707, -0.0003646739, 0.001250729, -0.002757569, -0.0005674032, -9.812493, 0, 0, 44.66772, 1, 1, 999, 999
 1230998237, 1, 0.003417854, -0.0003542419, 0.001145146, -0.001948461, -0.001288615, -9.812795, 0, 0, 44.66772, 1, 1, 760, 800
 1231038221, 0, 0.002358431, -0.001348875, 0.001128788, -0.001993087, -0.0005067037, -9.810493, 0, 0, 44.66777, 1, 1, 999, 999
 1231038221, 1, 0.002313349, -0.001227641, 0.0009597963, -0.002715987, 0.0003209743, -9.809316, 0, 0, 44.66777, 1, 1, 760, 800
 1231078205, 0, 0.002735702, -0.001868001, 0.001088891, -0.002930965, -1.703175E-05, -9.805498, 0, 0, 44.66782, 1, 1, 999, 999
 1231078205, 1, 0.002523726, -0.001888677, 0.0009530479, -0.003466261, 0.0008467342, -9.80567, 0, 0, 44.66782, 1, 1, 760, 800
 1231118189, 0, -0.0008956883, -0.001733488, 0.0009931565, -0.002894867, 0.0001368195, -9.805732, 0, 0, 44.66786, 1, 1, 999, 999
 1231118189, 1, -0.000960273, -0.001634803, 0.0008654615, -0.001963707, -0.0004353515, -9.804349, 0, 0, 44.66786, 1, 1, 760, 800
 1231158173, 0, -0.001325427, -0.0017314, 0.0008803408, -0.00236099, 3.158526E-06, -9.802275, 0, 0, 44.6679, 1, 1, 999, 999
 1231158173, 1, -0.001360163, -0.001657684, 0.001041222, -0.002140806, -0.0006620644, -9.803915, 0, 0, 44.6679, 1, 1, 760, 800
 1231198157, 0, 0.0001047727, -0.001725918, 0.0008296219, -0.003251198, 0.0004421654, -9.800291, 0, 0, 44.66795, 1, 1, 999, 999
 1231198157, 1, 0.0002606367, -0.001622318, 0.0006562747, -0.004407068, 0.00227384, -9.797806, 0, 0, 44.66795, 1, 1, 760, 800
 1231238141, 0, 0.0005430089, -0.001810725, 0.0004226024, -0.004046338, -0.0005978057, -9.800244, 0, 0, 44.66799, 1, 1, 999, 999
 1231238141, 1, 0.0004417493, -0.001477309, 0.0005354211, -0.003181708, 0.0004313594, -9.802059, 0, 0, 44.66799, 1, 1, 760, 800
 1231278125, 0, 0.001295456, 0.001126103, 0.0001843764, -0.003692336, -0.0009391559, -9.807477, 0, 0, 44.66803, 1, 1, 999, 999
 1231278125, 1, 0.00124475, 0.001245136, 7.694661E-05, -0.002673646, 7.779847E-05, -9.807247, 0, 0, 44.66804, 1, 1, 760, 800
 1231318109, 0, 0.003262331, 0.001610348, 4.316217E-06, -0.002526733, -5.141041E-05, -9.801867, 0, 0, 44.66808, 1, 1, 999, 999
 1231318109, 1, 0.003290035, 0.001548913, -0.0001274447, -0.002203224, -0.001628951, -9.800964, 0, 0, 44.66808, 1, 1, 760, 800
 1231358093, 0, -0.001164512, 0.001572858, -0.000161115, -0.001388485, 0.0001013951, -9.808447, 0, 0, 44.66812, 1, 1, 999, 999
 1231358093, 1, -0.001070321, 0.001534824, -7.435132E-05, -0.003036857, 0.0003458004, -9.807534, 0, 0, 44.66813, 1, 1, 760, 800
 1231398077, 0, -0.001358531, 0.002068829, -0.0002490521, -0.00183159, -9.141475E-06, -9.806867, 0, 0, 44.66817, 1, 1, 999, 999
 1231398077, 1, -0.001647584, 0.002311358, -0.0001721032, -0.003373265, 0.0004278476, -9.809429, 0, 0, 44.66817, 1, 1, 760, 800
 1231438061, 0, -0.0004024011, 0.0008417881, -0.0003468723, -0.003024553, 7.252284E-06, -9.806502, 0, 0, 44.66821, 1, 1, 999, 999
 1231438061, 1, -0.0003887752, 0.001004876, -0.0002628247, -0.002649126, 0.0006597462, -9.807264, 0, 0, 44.66821, 1, 1, 760, 800
 1231478045, 0, -0.0009212705, 0.0002397515, -0.0002864585, -0.003098966, 0.0005321855, -9.804978, 0, 0, 44.66825, 1, 1, 999, 999
 1231478045, 1, -0.001066154, 0.0003216135, -0.0004562962, -0.0007462211, 0.0003783762, -9.806606, 0, 0, 44.66826, 1, 1, 760, 800
 1231518029, 0, -0.0009229103, 0.0003266518, -0.0004617782, -0.002153105, 6.447636E-05, -9.806038, 0, 0, 44.6683, 1, 1, 999, 999
 1231518029, 1, -0.0009409531, 0.0003236066, -0.0003883065, -0.001489132, -0.001300249, -9.807571, 0, 0, 44.6683, 1, 1, 760, 800
 1231558013, 0, 2.720227E-05, 0.0004225055, -0.0004804076, -0.002553788, 0.0003707657, -9.806232, 0, 0, 44.66834, 1, 1, 999, 999
 1231558013, 1, -0.0001142417, 0.0005460443, -0.0003960409, -0.003048818, -7.684732E-05, -9.805792, 0, 0, 44.66835, 1, 1, 760, 800
 1231597997, 0, -7.31042E-05, -0.0009689918, -0.0004292303, -0.003280127, 0.001026476, -9.805696, 0, 0, 44.66839, 1, 1, 999, 999
 1231597997, 1, -0.0001513938, -0.0006665158, -0.0006536623, -0.0009938499, -0.0006071017, -9.806561, 0, 0, 44.66839, 1, 1, 760, 800
 1231637981, 0, -7.960004E-05, -0.00205307, -0.0004848261, -0.003263609, 0.0001952058, -9.804319, 0, 0, 44.66843, 1, 1, 999, 999
 1231637981, 1, -0.0001076755, -0.00195735, -0.0004027367, -0.00317307, -0.001070979, -9.805669, 0, 0, 44.66843, 1, 1, 760, 800
 1231677965, 0, -0.0002878558, -0.002000815, -0.0005410985, -0.002042935, 0.0004280277, -9.805583, 0, 0, 44.66848, 1, 1, 999, 999
 1231677965, 1, -0.0002542097, -0.001989545, -0.0004271739, 0.0005803824, -0.0001944261, -9.806419, 0, 0, 44.66848, 1, 1, 760, 800
 1231717949, 0, 0.0019183, -0.001164747, -0.000449006, -0.003137083, -0.000627993, -9.802113, 0, 0, 44.66852, 1, 1, 999, 999
 1231717949, 1, 0.001862398, -0.0009954672, -0.000418278, -0.002184457, -0.0007895968, -9.801512, 0, 0, 44.66852, 1, 1, 760, 800
 1231757933, 0, -0.0007162469, 0.0004428171, -0.0003357013, -0.002934011, 0.0001520654, -9.802423, 0, 0, 44.66856, 1, 1, 999, 999
 1231757933, 1, -0.000720085, 0.0002841859, -0.0004675306, -0.001148067, -0.0007575194, -9.800323, 0, 0, 44.66856, 1, 1, 760, 800
 1231797917, 0, -0.0001978787, -0.0005244864, -6.990205E-05, -0.001923896, 0.0005512049, -9.799309, 0, 0, 44.66861, 1, 1, 999, 999
 1231797917, 1, -0.0003160972, -0.0003013545, -0.0001654127, -0.003557045, 0.002305275, -9.799843, 0, 0, 44.66861, 1, 1, 760, 800
 1231837901, 0, 0.0005817875, -0.0004466494, 0.0002164704, -0.002143436, -0.00120922, -9.801402, 0, 0, 44.66866, 1, 1, 999, 999
 1231837901, 1, 0.0005069659, -0.0004257788, 0.0003489596, -0.001706801, 0.0007398496, -9.800756, 0, 0, 44.66866, 1, 1, 760, 800
 1231877885, 0, 0.001120427, -0.0004188612, 0.0005665056, -0.002518567, 0.001023306, -9.800333, 0, 0, 44.6687, 1, 1, 999, 999
 1231877885, 1, 0.001313899, -0.0002910782, 0.0004889652, -0.001860561, -0.0001133619, -9.802755, 0, 0, 44.6687, 1, 1, 760, 800
 1231917869, 0, 0.001744403, 0.0008717129, 0.0008601684, -0.002870024, -0.0007893427, -9.806957, 0, 0, 44.66874, 1, 1, 999, 999
 1231917869, 1, 0.001795739, 0.0008589845, 0.0008267533, -0.003221751, 0.001695531, -9.808887, 0, 0, 44.66874, 1, 1, 760, 800
 1231957853, 0, 0.002807906, 0.001843842, 0.0008170485, -0.003031862, -0.0006663441, -9.807439, 0, 0, 44.66879, 1, 1, 999, 999
 1231957853, 1, 0.002647016, 0.001748779, 0.0008980683, -0.001384993, 0.0003683922, -9.806227, 0, 0, 44.66879, 1, 1, 760, 800
 1231997837, 0, 0.002478761, 0.001230816, 0.0009295557, -0.002710834, 0.0005159593, -9.807529, 0, 0, 44.66883, 1, 1, 999, 999
 1231997837, 1, 0.002492198, 0.001343858, 0.0007744814, -0.002371834, -5.446634E-05, -9.806752, 0, 0, 44.66883, 1, 1, 760, 800
 1232037821, 0, 0.001072829, 0.0005426852, 0.0009071174, -0.002821395, -0.0004633405, -9.80724, 0, 0, 44.66887, 1, 1, 999, 999
 1232037821, 1, 0.001089395, 0.0004558614, 0.0009474463, -0.001887398, 0.00220681, -9.806568, 0, 0, 44.66887, 1, 1, 760, 800
 1232077805, 0, 0.0004974169, -0.0008352374, 0.0009064229, -0.002473047, 0.001068107, -9.808781, 0, 0, 44.66892, 1, 1, 999, 999
 1232077805, 1, 0.0001592173, -0.001018184, 0.0008258104, -0.00255362, -0.0002948235, -9.809544, 0, 0, 44.66892, 1, 1, 760, 800
 1232117789, 0, -0.0008966501, -0.001302996, 0.00093686, -0.002575374, 0.0004619482, -9.810097, 0, 0, 44.66896, 1, 1, 999, 999
 1232117789, 1, -0.0008272083, -0.00117808, 0.0008174051, -0.00454615, -0.001068803, -9.808869, 0, 0, 44.66896, 1, 1, 760, 800
 1232157773, 0, -0.001045543, -0.001088222, 0.0008945201, -0.002649815, 0.0003030144, -9.809093, 0, 0, 44.66901, 1, 1, 999, 999
 1232157773, 1, -0.001164656, -0.001183535, 0.001008724, -0.004622241, -0.00020876, -9.807769, 0, 0, 44.66901, 1, 1, 760, 800
 1232197757, 0, -0.0006928928, -0.0008579561, 0.0009099826, -0.001835698, -0.0003407507, -9.807025, 0, 0, 44.66905, 1, 1, 999, 999
 1232197757, 1, -0.000795081, -0.000810469, 0.0008192632, -0.001821252, 0.001665138, -9.807992, 0, 0, 44.66905, 1, 1, 760, 800
 1232237741, 0, -0.0001061157, 0.0001649652, 0.0009131648, -0.002746182, -0.0001756215, -9.807482, 0, 0, 44.66909, 1, 1, 999, 999
 1232237741, 1, -4.35058E-05, 0.0001731185, 0.0007395938, -0.002290255, 0.0008832264, -9.806899, 0, 0, 44.66909, 1, 1, 760, 800
 1232277725, 0, 0.0004716198, 0.0005822782, 0.0008672365, -0.003644645, 0.0004900711, -9.81038, 0, 0, 44.66914, 1, 1, 999, 999
 1232277725, 1, 6.773678E-05, 0.0003623857, 0.0007341892, -0.0009846953, -0.001586898, -9.810184, 0, 0, 44.66914, 1, 1, 760, 800
 1232317709, 0, 0.002758893, 0.003881235, 0.0007335265, -0.002315093, -0.0007483389, -9.812273, 0, 0, 44.66918, 1, 1, 999, 999
 1232317709, 1, 0.002658615, 0.004040556, 0.0007424252, -0.00217628, -0.001372206, -9.808722, 0, 0, 44.66918, 1, 1, 760, 800
 1232357693, 0, 0.00161701, 0.002590263, 0.0006857376, -0.003498634, -0.0003905946, -9.812588, 0, 0, 44.66923, 1, 1, 999, 999
 1232357693, 1, 0.001928088, 0.002568483, 0.0007904025, -0.003627566, 0.001156079, -9.810741, 0, 0, 44.66923, 1, 1, 760, 800
 1232397677, 0, 0.001575434, 0.002193552, 0.0006980085, -0.003070289, -0.0009666206, -9.811019, 0, 0, 44.66927, 1, 1, 999, 999
 1232397677, 1, 0.001603418, 0.002422284, 0.0006767249, -0.004681373, 0.002578873, -9.810204, 0, 0, 44.66927, 1, 1, 760, 800
 1232437661, 0, 0.001565752, 0.001957685, 0.0007325576, -0.002599183, 0.000225347, -9.813555, 0, 0, 44.66932, 1, 1, 999, 999
 1232437661, 1, 0.001615662, 0.002124679, 0.000665319, -0.002441561, -0.002159663, -9.813549, 0, 0, 44.66932, 1, 1, 760, 800
 1232477645, 0, 0.001614016, 0.001697061, 0.0005610582, -0.003506655, 6.974249E-05, -9.81498, 0, 0, 44.66936, 1, 1, 999, 999
 1232477645, 1, 0.001418003, 0.001727663, 0.0006095329, -0.003502313, -0.001143988, -9.812567, 0, 0, 44.66936, 1, 1, 760, 800
 1232517629, 0, 0.002345463, 0.00123814, 0.0005644904, -0.00220765, 0.001516565, -9.815153, 0, 0, 44.6694, 1, 1, 1000, 1000
 1232517629, 1, 0.002419679, 0.001261052, 0.0006879811, -0.003133053, -0.0005628365, -9.814592, 0, 0, 44.6694, 1, 1, 760, 800
 1232557613, 0, 0.002115545, -0.0003405013, 0.0004618162, -0.003395159, 0.000191321, -9.814191, 0, 0, 44.66945, 1, 1, 1000, 1000
 1232557613, 1, 0.002002864, -0.0004540247, 0.0004897147, -0.002820302, 0.003314582, -9.81542, 0, 0, 44.66945, 1, 1, 760, 800
 1232597597, 0, 0.002289555, -0.001134034, 0.0005150464, -0.003148654, 9.037991E-05, -9.817642, 0, 0, 44.66949, 1, 1, 1000, 1000
 1232597597, 1, 0.002230416, -0.001124951, 0.0003787631, -0.004882479, -0.001870155, -9.820286, 0, 0, 44.66949, 1, 1, 760, 800
 1232637581, 0, 0.001445385, -0.0008462757, 0.0004312781, -0.002450797, 0.0005371991, -9.817302, 0, 0, 44.66954, 1, 1, 1000, 1000
 1232637581, 1, 0.001138072, -0.0009199301, 0.0005071565, -0.002243424, 0.0002447082, -9.818637, 0, 0, 44.66954, 1, 1, 760, 800
 1232677565, 0, -0.0008408928, -0.000727563, 0.0003369768, -0.00234639, 0.0004507051, -9.819773, 0, 0, 44.66958, 1, 1, 1000, 1000
 1232677565, 1, -0.0007627157, -0.0007055127, 0.0003093838, -0.00493858, -0.001106102, -9.818704, 0, 0, 44.66958, 1, 1, 760, 800
 1232717549, 0, -0.001193242, 0.001611188, 0.0001956457, -0.00386313, -0.0003668834, -9.820985, 0, 0, 44.66962, 1, 1, 1000, 1000
 1232717549, 1, -0.001236839, 0.001743272, 1.893957E-05, -0.002117167, -0.0006843501, -9.821486, 0, 0, 44.66962, 1, 1, 760, 800
 1232757533, 0, -0.001466475, 0.001482376, -3.200554E-05, -0.003588975, -0.0003287476, -9.823256, 0, 0, 44.66967, 1, 1, 1000, 1000
 1232757533, 1, -0.001416467, 0.00145859, -0.0001142605, -0.004351871, -0.002480747, -9.821437, 0, 0, 44.66967, 1, 1, 760, 800
 1232797517, 0, -0.001150625, 0.001486088, -0.000365807, -0.003081572, 0.0009086495, -9.822493, 0, 0, 44.66971, 1, 1, 1000, 1000
 1232797517, 1, -0.001344303, 0.001543967, -0.0003753285, -0.004099267, -0.0002166851, -9.822536, 0, 0, 44.66971, 1, 1, 760, 800
 1232837501, 0, -0.002718608, 0.001373792, -0.0007023544, -0.003132766, -0.000399572, -9.818552, 0, 0, 44.66976, 1, 1, 1000, 1000
 1232837501, 1, -0.002706593, 0.001262412, -0.0004922383, -0.002965253, -0.00296138, -9.81684, 0, 0, 44.66975, 1, 1, 760, 800
 1232877485, 0, -0.001067795, 0.001483379, -0.0007920623, -0.003369526, -0.0004837976, -9.814243, 0, 0, 44.6698, 1, 1, 1000, 1000
 1232877485, 1, -0.001108889, 0.001362931, -0.0008776359, -0.001953844, 0.0008671806, -9.81371, 0, 0, 44.6698, 1, 1, 760, 800
 1232917469, 0, 0.0004172929, 0.001557236, -0.0007461694, -0.003841822, 3.596969E-05, -9.813226, 0, 0, 44.66985, 1, 1, 1000, 1000
 1232917469, 1, 0.0005279501, 0.001616984, -0.0008302444, -0.00445341, 0.0005789347, -9.812048, 0, 0, 44.66984, 1, 1, 760, 800
