Time,IMU_I,IMU_GyrX,IMU_GyrY,IMU_GyrZ,IMU_AccX,IMU_AccY,IMU_AccZ,IMU_EG,IMU_EA,IMU_T,IMU_GH,IMU_AH,IMU_GHz,IMU_AHz
 70134435, 0, 0.0009207529, 0.0009739885, 0.0009847669, -0.000147135, -0.001189132, -9.816705, 0, 0, 29.0772, 1, 1, 1000, 1000
 70134435, 1, 0.0009004429, 0.001019453, 0.0009145908, -0.0006366386, -0.003309251, -9.81626, 0, 0, 29.0772, 1, 1, 760, 800
 70174419, 0, 0.001046879, 0.001046453, 0.0009505233, -0.001542296, -0.0007411363, -9.817551, 0, 0, 29.07932, 1, 1, 1000, 1000
 70174419, 1, 0.001112679, 0.0008769479, 0.0008816255, -0.002343999, -0.0003421069, -9.817379, 0, 0, 29.07932, 1, 1, 760, 800
 70214403, 0, 0.0009799339, 0.001028163, 0.0009433681, -0.0006290316, -0.0004103867, -9.817104, 0, 0, 29.08144, 1, 1, 1000, 1000
 70214403, 1, 0.0009216542, 0.001248419, 0.0009619067, -0.0006707109, -0.001530558, -9.816277, 0, 0, 29.08144, 1, 1, 760, 800
 70254387, 0, 0.001051018, 0.001009254, 0.001026914, -0.001374739, -0.001552108, -9.817187, 0, 0, 29.08356, 1, 1, 1000, 1000
 70254387, 1, 0.00114809, 0.001009441, 0.0009899933, -0.002611046, -0.002031069, -9.818628, 0, 0, 29.08356, 1, 1, 760, 800
 70294371, 0, 0.0009618311, 0.0009786924, 0.001007416, -0.00068237, -0.0007362579, -9.817474, 0, 0, 29.08569, 1, 1, 1000, 1000
 70294371, 1, 0.000857442, 0.0008960215, 0.001015258, -0.0008808512, 0.002050209, -9.819202, 0, 0, 29.08569, 1, 1, 760, 800
 70334355, 0, 0.0009716924, 0.001049142, 0.001001977, -0.001274556, -2.398348E-05, -9.818083, 0, 0, 29.08781, 1, 1, 1000, 1000
 70334355, 1, 0.001058757, 0.0009395458, 0.0009115675, -0.00183805, -0.0005551511, -9.819555, 0, 0, 29.08781, 1, 1, 760, 800
 70374339, 0, 0.001045035, 0.001011443, 0.00104087, -0.0008748083, -0.0006720895, -9.81786, 0, 0, 29.08993, 1, 1, 1000, 1000
 70374339, 1, 0.001019696, 0.0009325392, 0.001020968, -0.00278305, -0.00127343, -9.819425, 0, 0, 29.08993, 1, 1, 760, 800
 70414323, 0, 0.0009731116, 0.001106968, 0.001052025, -0.001432014, -0.0001691344, -9.817932, 0, 0, 29.09205, 1, 1, 1000, 1000
 70414323, 1, 0.00141117, 0.0009414289, 0.001205663, -0.001469404, -0.002405556, -9.817982, 0, 0, 29.09205, 1, 1, 760, 800
 70454307, 0, 0.0009372905, 0.001014904, 0.001033969, -0.0007028189, -0.0008391172, -9.817196, 0, 0, 29.09417, 1, 1, 1000, 1000
 70454307, 1, 0.000925059, 0.0009228431, 0.0009209869, 0.0006551641, -0.00198523, -9.818461, 0, 0, 29.09417, 1, 1, 760, 800
 70494291, 0, 0.0009479036, 0.001007555, 0.0009937716, -3.45704E-05, -0.001408193, -9.817478, 0, 0, 29.09629, 1, 1, 1000, 1000
 70494291, 1, 0.001227983, 0.000921821, 0.001005971, -7.082684E-06, -0.0004113862, -9.815488, 0, 0, 29.09629, 1, 1, 760, 800
 70534275, 0, 0.001021565, 0.0009844681, 0.000938205, -0.001610352, -0.0008638266, -9.817554, 0, 0, 29.09841, 1, 1, 1000, 1000
 70534275, 1, 0.00101724, 0.001043578, 0.001128364, -0.002539283, -0.00137351, -9.816653, 0, 0, 29.09841, 1, 1, 760, 800
 70574259, 0, 0.0009738222, 0.0009397858, 0.001009589, -0.001135672, -0.001550636, -9.81724, 0, 0, 29.10053, 1, 1, 1000, 1000
 70574259, 1, 0.0008718873, 0.0009100484, 0.001062714, -0.002934617, -0.001082604, -9.816631, 0, 0, 29.10053, 1, 1, 760, 800
 70614243, 0, 0.001048863, 0.001046449, 0.0009305845, -0.0001415042, -0.0001682042, -9.817593, 0, 0, 29.10265, 1, 1, 1000, 1000
 70614243, 1, 0.0007694871, 0.001064832, 0.0007581424, -0.002886345, -0.002397291, -9.818033, 0, 0, 29.10265, 1, 1, 760, 800
 70654227, 0, 0.001022824, 0.0009976694, 0.001011274, -0.001313359, -0.0008646043, -9.818842, 0, 0, 29.10477, 1, 1, 1000, 1000
 70654227, 1, 0.0008450982, 0.001450535, 0.0007515106, -0.0008926154, -0.002365617, -9.817021, 0, 0, 29.10477, 1, 1, 760, 800
 70694211, 0, 0.0009987135, 0.001026776, 0.001050986, -0.000324077, -0.001923252, -9.817116, 0, 0, 29.10689, 1, 1, 1000, 1000
 70694211, 1, 0.001004085, 0.0009176268, 0.0009980719, -0.0006489021, -0.001349832, -9.818363, 0, 0, 29.10689, 1, 1, 760, 800
 70734195, 0, 0.001030372, 0.001011049, 0.001009767, -0.0002008543, -0.0005572066, -9.817161, 0, 0, 29.10901, 1, 1, 1000, 1000
 70734195, 1, 0.001041969, 0.001014335, 0.0009422148, -0.00178932, -0.0001619948, -9.82021, 0, 0, 29.10901, 1, 1, 760, 800
 70774179, 0, 0.0009671053, 0.0009935247, 0.001018737, -0.0004604773, -7.971757E-07, -9.816999, 0, 0, 29.11113, 1, 1, 1000, 1000
 70774179, 1, 0.0008387115, 0.00117018, 0.001029305, -0.0008742486, -0.003289643, -9.816265, 0, 0, 29.11113, 1, 1, 760, 800
 70814163, 0, 0.001013838, 0.001062668, 0.0009957106, -0.001308176, -0.001020335, -9.816621, 0, 0, 29.11325, 1, 1, 1000, 1000
 70814163, 1, 0.001203085, 0.001278028, 0.0008087125, -0.002685411, -0.002042614, -9.816622, 0, 0, 29.11325, 1, 1, 760, 800
 70854147, 0, 0.001007084, 0.000984522, 0.0009752624, -0.0003497918, -0.000153168, -9.81681, 0, 0, 29.11537, 1, 1, 1000, 1000
 70854147, 1, 0.001136843, 0.0009559608, 0.0007246874, -0.002355857, -0.0004640707, -9.817513, 0, 0, 29.11537, 1, 1, 760, 800
 70894131, 0, 0.0009286197, 0.001013369, 0.00103448, -0.001668301, -0.0009682132, -9.816179, 0, 0, 29.11743, 1, 1, 1000, 1000
 70894131, 1, 0.001109423, 0.001054256, 0.0009395136, -0.001239714, -0.0005779015, -9.816642, 0, 0, 29.11748, 1, 1, 760, 800
 70934115, 0, 0.0009800775, 0.001030293, 0.001017944, -0.0003778718, 0.0005131543, -9.817478, 0, 0, 29.11955, 1, 1, 1000, 1000
 70934115, 1, 0.001126559, 0.001063626, 0.001136745, 0.002088059, -0.001698006, -9.816006, 0, 0, 29.1196, 1, 1, 760, 800
 70974099, 0, 0.0009674485, 0.001075526, 0.001079012, -0.0009336128, 0.0003452553, -9.818545, 0, 0, 29.12167, 1, 1, 1000, 1000
 70974099, 1, 0.001118877, 0.001310702, 0.0009382457, -0.0006305694, -0.00316209, -9.818336, 0, 0, 29.12172, 1, 1, 760, 800
 71014083, 0, 0.0009773271, 0.0009497269, 0.001081301, -0.0004360023, -0.0009648037, -9.817943, 0, 0, 29.12378, 1, 1, 1000, 1000
 71014083, 1, 0.0009286941, 0.001167053, 0.0009902059, -0.0008148673, -0.001035137, -9.818354, 0, 0, 29.12383, 1, 1, 760, 800
 71054067, 0, 0.001023126, 0.0009671853, 0.001018692, -0.0008838702, -0.002215571, -9.817945, 0, 0, 29.1259, 1, 1, 1000, 1000
 71054067, 1, 0.001156937, 0.001037484, 0.001112485, -2.832323E-05, -0.00255711, -9.817732, 0, 0, 29.12595, 1, 1, 760, 800
 71094051, 0, 0.00100106, 0.000977822, 0.001046522, -0.001536217, -0.0009729245, -9.817389, 0, 0, 29.12802, 1, 1, 1000, 1000
 71094051, 1, 0.0008212641, 0.00131406, 0.0009004456, -0.002282491, -0.00123472, -9.81797, 0, 0, 29.12807, 1, 1, 760, 800
 71134035, 0, 0.001065703, 0.001037026, 0.0009960152, -0.0003399117, -0.001159472, -9.8158, 0, 0, 29.13013, 1, 1, 1000, 1000
 71134035, 1, 0.001029488, 0.001205339, 0.0008119205, -0.0005834001, -0.002043411, -9.817276, 0, 0, 29.13018, 1, 1, 760, 800
 71174019, 0, 0.001001076, 0.001072308, 0.001019679, -0.001537657, -0.0003977892, -9.817345, 0, 0, 29.13225, 1, 1, 1000, 1000
 71174019, 1, 0.0009125096, 0.00081282, 0.001093251, -0.0007189407, 0.000628216, -9.81666, 0, 0, 29.1323, 1, 1, 760, 800
 71214003, 0, 0.0009671663, 0.0009793836, 0.001035869, -0.001348321, -0.001211059, -9.818844, 0, 0, 29.13436, 1, 1, 1000, 1000
 71214003, 1, 0.000919764, 0.0008709762, 0.0009535339, -0.002062352, -0.00237041, -9.818701, 0, 0, 29.13441, 1, 1, 760, 800
 71253987, 0, 0.001098496, 0.001055922, 0.001018269, -0.001083515, -0.001513033, -9.8174, 0, 0, 29.13648, 1, 1, 1000, 1000
 71253987, 1, 0.0007488405, 0.001082384, 0.0008347381, -7.450396E-05, -0.003681362, -9.819386, 0, 0, 29.13648, 1, 1, 760, 800
 71293971, 0, 0.001038218, 0.001033474, 0.001047208, -0.0003049514, -0.00161624, -9.816683, 0, 0, 29.13859, 1, 1, 1000, 1000
 71293971, 1, 0.001041409, 0.0009685784, 0.001014024, -0.004058537, -0.002993981, -9.816603, 0, 0, 29.13859, 1, 1, 760, 800
 71333955, 0, 0.001005706, 0.0009718645, 0.001039398, -0.001152011, -0.0008403648, -9.818459, 0, 0, 29.14071, 1, 1, 1000, 1000
 71333955, 1, 0.001220397, 0.0009050289, 0.00104848, -0.002903156, 0.0007888332, -9.817997, 0, 0, 29.14071, 1, 1, 760, 800
 71373939, 0, 0.001030433, 0.001022695, 0.001043183, -0.0002750027, -0.000528425, -9.818102, 0, 0, 29.14282, 1, 1, 1000, 1000
 71373939, 1, 0.0009112297, 0.001085858, 0.001021203, 0.001424667, -0.002722705, -9.818733, 0, 0, 29.14282, 1, 1, 760, 800
 71413923, 0, 0.001052006, 0.001027554, 0.001012833, -0.001428141, -0.0008620665, -9.817513, 0, 0, 29.14494, 1, 1, 1000, 1000
 71413923, 1, 0.0009680714, 0.0009293196, 0.001145456, -0.0005760451, -0.001818644, -9.818909, 0, 0, 29.14494, 1, 1, 760, 800
 71453907, 0, 0.001016114, 0.001070642, 0.001039418, -0.0005789667, -0.002169868, -9.818228, 0, 0, 29.14705, 1, 1, 1000, 1000
 71453907, 1, 0.0009599036, 0.001037942, 0.001033638, -0.003766044, -0.001421804, -9.819155, 0, 0, 29.14705, 1, 1, 760, 800
 71493891, 0, 0.001031574, 0.001047005, 0.001055209, -0.001398062, -0.001784691, -9.817641, 0, 0, 29.14916, 1, 1, 1000, 1000
 71493891, 1, 0.0008160469, 0.001043664, 0.0009980866, 0.001538305, -0.002228745, -9.816507, 0, 0, 29.14916, 1, 1, 760, 800
 71533875, 0, 0.001011436, 0.001046869, 0.001123925, -0.001595466, -0.001276108, -9.818322, 0, 0, 29.15128, 1, 1, 1000, 1000
 71533875, 1, 0.0007298862, 0.001312992, 0.0009498575, -0.0008816763, -7.691899E-05, -9.817103, 0, 0, 29.15128, 1, 1, 760, 800
 71573859, 0, 0.001053335, 0.001003213, 0.001030413, -0.0007580802, -0.0007561232, -9.81768, 0, 0, 29.15339, 1, 1, 1000, 1000
 71573859, 1, 0.001043041, 0.001080519, 0.001002717, -0.002430334, -0.0006700555, -9.818227, 0, 0, 29.15339, 1, 1, 760, 800
 71613843, 0, 0.00107167, 0.001028291, 0.001011541, -0.001838316, -0.001154572, -9.817202, 0, 0, 29.1555, 1, 1, 1000, 1000
 71613843, 1, 0.001149028, 0.001025823, 0.001116647, -0.001429011, -0.001501716, -9.817306, 0, 0, 29.1555, 1, 1, 760, 800
 71653827, 0, 0.0009870859, 0.001069128, 0.000966504, -0.001240488, -0.001202747, -9.818776, 0, 0, 29.15762, 1, 1, 1000, 1000
 71653827, 1, 0.0009212079, 0.001059409, 0.0009913051, -0.002796962, -0.0007872334, -9.814394, 0, 0, 29.15756, 1, 1, 760, 800
 71693811, 0, 0.001037885, 0.001120622, 0.001008146, -0.0001679252, -0.001829243, -9.81782, 0, 0, 29.15973, 1, 1, 1000, 1000
 71693811, 1, 0.0009987333, 0.001126057, 0.0009765174, -0.0003687815, -0.0007163691, -9.815289, 0, 0, 29.15968, 1, 1, 760, 800
 71733795, 0, 0.000961512, 0.0009776549, 0.001047476, -0.0007865258, -0.0004682206, -9.817669, 0, 0, 29.16184, 1, 1, 1000, 1000
 71733795, 1, 0.000944522, 0.0009782861, 0.0009825147, 0.00152712, -0.0005543748, -9.817357, 0, 0, 29.16179, 1, 1, 760, 800
 71773779, 0, 0.0009953761, 0.001068041, 0.001053228, -0.0006877723, -0.001399901, -9.817541, 0, 0, 29.16395, 1, 1, 1000, 1000
 71773779, 1, 0.0007650378, 0.0009551626, 0.001090451, -0.0007676001, -0.001422817, -9.818445, 0, 0, 29.1639, 1, 1, 760, 800
 71813763, 0, 0.001037023, 0.001014284, 0.001012415, -0.002220272, -0.001410833, -9.81713, 0, 0, 29.16606, 1, 1, 1000, 1000
 71813763, 1, 0.000947856, 0.0008433562, 0.0009569402, -0.002001931, 0.0005266811, -9.817937, 0, 0, 29.16601, 1, 1, 760, 800
 71853747, 0, 0.0009737597, 0.00102762, 0.001048187, -0.0004602417, -0.0007375546, -9.818741, 0, 0, 29.16817, 1, 1, 1000, 1000
 71853747, 1, 0.001049887, 0.001060369, 0.001147707, -0.002334547, -0.001108069, -9.816332, 0, 0, 29.16812, 1, 1, 760, 800
 71893731, 0, 0.001031765, 0.001061176, 0.001024092, -0.001013915, -0.001451163, -9.817661, 0, 0, 29.17028, 1, 1, 1000, 1000
 71893731, 1, 0.0007731984, 0.001008899, 0.0009409662, -0.0005074682, 0.002428257, -9.816358, 0, 0, 29.17023, 1, 1, 760, 800
 71933715, 0, 0.0009797408, 0.001011221, 0.0009848963, -0.0005834204, 0.0001726982, -9.818081, 0, 0, 29.17239, 1, 1, 1000, 1000
 71933715, 1, 0.00107046, 0.001063988, 0.0009752378, 0.0001577678, -0.002084524, -9.817732, 0, 0, 29.17234, 1, 1, 760, 800
 71973699, 0, 0.001082888, 0.0009868036, 0.001090854, 9.55228E-05, -0.001275159, -9.818228, 0, 0, 29.1745, 1, 1, 1000, 1000
 71973699, 1, 0.0009764315, 0.001237522, 0.0009564328, -0.001071864, -0.0004406411, -9.814974, 0, 0, 29.17445, 1, 1, 760, 800
 72013683, 0, 0.00101316, 0.00116202, 0.001018023, -0.000752782, 2.089381E-05, -9.817513, 0, 0, 29.17661, 1, 1, 1000, 1000
 72013683, 1, 0.0009509455, 0.001191846, 0.001010086, 0.0004809125, -0.0005240762, -9.818994, 0, 0, 29.17656, 1, 1, 760, 800
 72053667, 0, 0.001044553, 0.0009814546, 0.001093486, -0.001279125, -0.0007465875, -9.817936, 0, 0, 29.17872, 1, 1, 1000, 1000
 72053667, 1, 0.0008535772, 0.001060678, 0.001005629, 2.245874E-05, -0.001903003, -9.81641, 0, 0, 29.17867, 1, 1, 760, 800
 72093651, 0, 0.001051214, 0.001029989, 0.001021637, -0.0001725173, -0.0008497831, -9.817217, 0, 0, 29.18083, 1, 1, 1000, 1000
 72093651, 1, 0.00116307, 0.001018295, 0.0009275227, -0.002506411, 0.0002287587, -9.819768, 0, 0, 29.18078, 1, 1, 760, 800
 72133635, 0, 0.001020916, 0.001025441, 0.0009771012, -0.0004443779, 0.000311062, -9.817183, 0, 0, 29.18294, 1, 1, 1000, 1000
 72133635, 1, 0.0009962858, 0.001025752, 0.001084794, -0.002535231, 0.0005093986, -9.817986, 0, 0, 29.18289, 1, 1, 760, 800
 72173619, 0, 0.00100532, 0.001037505, 0.001070028, -0.001645169, -0.001285709, -9.818178, 0, 0, 29.18505, 1, 1, 1000, 1000
 72173619, 1, 0.001062193, 0.001133558, 0.00116524, 0.000763247, -0.0006945188, -9.818343, 0, 0, 29.185, 1, 1, 760, 800
 72213603, 0, 0.001064342, 0.001097423, 0.0009980658, -0.0001914088, 0.0003586506, -9.817705, 0, 0, 29.18716, 1, 1, 1000, 1000
 72213603, 1, 0.000962876, 0.0008136668, 0.0009919474, -0.001175293, 0.001818816, -9.819622, 0, 0, 29.18711, 1, 1, 760, 800
 72254420, 0, 0.000990085, 0.001057987, 0.001078701, -0.0002039101, -0.0008999187, -9.817244, 0, 0, 29.18932, 1, 1, 1000, 1000
 72254420, 1, 0.001020063, 0.00124681, 0.001096255, -0.00326165, 0.001124658, -9.819871, 0, 0, 29.18932, 1, 1, 760, 800
 72294404, 0, 0.001042724, 0.001035356, 0.001074127, -0.0008424509, -0.001385845, -9.817245, 0, 0, 29.19143, 1, 1, 1000, 1000
 72294404, 1, 0.001082515, 0.001180004, 0.0007601702, -0.002022246, -0.001504418, -9.817715, 0, 0, 29.19143, 1, 1, 760, 800
 72334388, 0, 0.001009153, 0.001015267, 0.001060699, -0.001311619, -0.001306409, -9.817103, 0, 0, 29.19353, 1, 1, 1000, 1000
 72334388, 1, 0.0009407797, 0.0009352617, 0.001268414, -0.002580967, -0.0004349926, -9.817883, 0, 0, 29.19353, 1, 1, 760, 800
 72374372, 0, 0.001001037, 0.001039455, 0.001026746, -0.001962199, -0.001703726, -9.817419, 0, 0, 29.19564, 1, 1, 1000, 1000
 72374372, 1, 0.0009298492, 0.001236371, 0.001047789, -0.001227227, -0.001259513, -9.818712, 0, 0, 29.19564, 1, 1, 760, 800
 72414356, 0, 0.0009654772, 0.001049272, 0.0009979584, -0.0006185951, -0.001041725, -9.817488, 0, 0, 29.19775, 1, 1, 1000, 1000
 72414356, 1, 0.001016266, 0.000909307, 0.00113314, -0.001972101, -0.001046629, -9.818326, 0, 0, 29.19775, 1, 1, 760, 800
 72454340, 0, 0.001033644, 0.001040685, 0.001098402, -0.002026254, -0.0009664778, -9.817908, 0, 0, 29.19986, 1, 1, 1000, 1000
 72454340, 1, 0.0009074959, 0.001204324, 0.001163824, -0.00127568, -0.0008794238, -9.818535, 0, 0, 29.19986, 1, 1, 760, 800
 72494324, 0, 0.001037713, 0.0009585715, 0.00103434, -0.0001641838, -0.0003199583, -9.818315, 0, 0, 29.20197, 1, 1, 1000, 1000
 72494324, 1, 0.001005127, 0.0009432778, 0.0009998152, -0.002416282, -0.001498735, -9.815277, 0, 0, 29.20197, 1, 1, 760, 800
 72534308, 0, 0.001089906, 0.001035024, 0.001044645, -0.0009589692, -0.000687964, -9.816496, 0, 0, 29.20407, 1, 1, 1000, 1000
 72534308, 1, 0.001054437, 0.001212814, 0.0009153622, -0.0001893981, -0.00103404, -9.817471, 0, 0, 29.20407, 1, 1, 760, 800
 72574292, 0, 0.001059801, 0.000968254, 0.001053944, -4.313122E-05, -0.001685239, -9.817945, 0, 0, 29.20618, 1, 1, 1000, 1000
 72574292, 1, 0.001221897, 0.0009817416, 0.0008610633, -0.0004618325, -0.003545522, -9.816456, 0, 0, 29.20618, 1, 1, 760, 800
 72614276, 0, 0.001078533, 0.001015125, 0.001033689, -0.0009574394, -0.001107133, -9.817214, 0, 0, 29.20828, 1, 1, 1000, 1000
 72614276, 1, 0.001290832, 0.001034404, 0.000972282, -0.0001088827, -0.0009277695, -9.816732, 0, 0, 29.20828, 1, 1, 760, 800
 72654260, 0, 0.001059632, 0.00101896, 0.00104381, -0.0009501051, 0.0001430734, -9.818626, 0, 0, 29.21039, 1, 1, 1000, 1000
 72654260, 1, 0.001048744, 0.001047722, 0.0008515985, 0.0007702044, -0.001109241, -9.814451, 0, 0, 29.21039, 1, 1, 760, 800
 72694244, 0, 0.001039619, 0.001063013, 0.001069648, 0.000330053, -0.001430434, -9.817139, 0, 0, 29.21249, 1, 1, 1000, 1000
 72694244, 1, 0.001094123, 0.001076125, 0.001183199, -0.001273128, -0.0001204528, -9.819254, 0, 0, 29.21249, 1, 1, 760, 800
 72734228, 0, 0.00110615, 0.0009722023, 0.0009948243, -0.0008526089, -0.001864189, -9.817806, 0, 0, 29.2146, 1, 1, 1000, 1000
 72734228, 1, 0.0009669586, 0.001203067, 0.001000217, 0.001884868, -0.00105608, -9.816586, 0, 0, 29.2146, 1, 1, 760, 800
 72774212, 0, 0.001030502, 0.001061583, 0.00102608, 1.145164E-05, -0.001099285, -9.81765, 0, 0, 29.2167, 1, 1, 1000, 1000
 72774212, 1, 0.001058238, 0.001288836, 0.0008944073, 0.0001725348, -0.0001760015, -9.81824, 0, 0, 29.2167, 1, 1, 760, 800
 72814196, 0, 0.001010193, 0.001000169, 0.001024624, -0.001492947, -0.001573942, -9.818232, 0, 0, 29.21881, 1, 1, 1000, 1000
 72814196, 1, 0.000974973, 0.001057132, 0.001020993, -0.001632151, -0.0005035369, -9.816101, 0, 0, 29.21881, 1, 1, 760, 800
 72854180, 0, 0.001104187, 0.001091178, 0.001079866, -0.0005065344, -0.001201369, -9.816885, 0, 0, 29.22091, 1, 1, 1000, 1000
 72854180, 1, 0.000906951, 0.001111131, 0.0009569419, 0.0001610432, 0.000106502, -9.81828, 0, 0, 29.22091, 1, 1, 760, 800
 72894164, 0, 0.001051776, 0.001001911, 0.001002165, -0.0004537222, -0.0009094401, -9.817203, 0, 0, 29.22301, 1, 1, 1000, 1000
 72894164, 1, 0.001057576, 0.0009226269, 0.001002459, -0.002386986, -0.001650835, -9.818743, 0, 0, 29.22301, 1, 1, 760, 800
 72934148, 0, 0.0009619502, 0.001083509, 0.001037362, -0.001361658, -0.0008623244, -9.817129, 0, 0, 29.22512, 1, 1, 1000, 1000
 72934148, 1, 0.0010555, 0.00132985, 0.001057683, -0.001307259, 0.0002171774, -9.819892, 0, 0, 29.22512, 1, 1, 760, 800
 72974132, 0, 0.001063752, 0.001030777, 0.001022584, -0.0002017325, -0.001246939, -9.817189, 0, 0, 29.22717, 1, 1, 1000, 1000
 72974132, 1, 0.00100788, 0.001336169, 0.001019555, -0.001668024, -6.75112E-05, -9.817831, 0, 0, 29.22722, 1, 1, 760, 800
 73014116, 0, 0.001024805, 0.001013244, 0.0009974868, -0.001120041, -0.001580578, -9.818771, 0, 0, 29.22927, 1, 1, 1000, 1000
 73014116, 1, 0.001319079, 0.001000212, 0.0009137425, 0.000995169, -0.002097572, -9.815928, 0, 0, 29.22932, 1, 1, 760, 800
 73054100, 0, 0.001019866, 0.001156436, 0.001050957, -0.0008939405, -0.001274664, -9.81735, 0, 0, 29.23137, 1, 1, 1000, 1000
 73054100, 1, 0.0009075482, 0.001149764, 0.001102533, -0.0002503918, -0.001476863, -9.816848, 0, 0, 29.23143, 1, 1, 760, 800
 73094084, 0, 0.001043517, 0.00101391, 0.001070604, -0.001084166, -0.001693685, -9.817599, 0, 0, 29.23348, 1, 1, 1000, 1000
 73094084, 1, 0.001073479, 0.0009574018, 0.001298303, -0.001984142, 0.0001760407, -9.819877, 0, 0, 29.23353, 1, 1, 760, 800
 73134068, 0, 0.001028926, 0.001037508, 0.001016646, -0.0009758106, -0.0008653618, -9.817015, 0, 0, 29.23558, 1, 1, 1000, 1000
 73134068, 1, 0.001253003, 0.001017642, 0.0008456259, 0.0002740397, -0.001730487, -9.817915, 0, 0, 29.23563, 1, 1, 760, 800
 73174052, 0, 0.001031953, 0.001050996, 0.001021866, -0.001818606, -0.001864332, -9.817579, 0, 0, 29.23768, 1, 1, 1000, 1000
 73174052, 1, 0.0008294201, 0.001401549, 0.0007642902, -0.000139339, -0.001548994, -9.820156, 0, 0, 29.23773, 1, 1, 760, 800
 73214036, 0, 0.001025674, 0.001080355, 0.001046309, -5.617447E-05, -3.457919E-05, -9.817305, 0, 0, 29.23978, 1, 1, 1000, 1000
 73214036, 1, 0.001155769, 0.001026867, 0.001069577, -0.002347654, 0.0001118165, -9.818508, 0, 0, 29.23983, 1, 1, 760, 800
 73254020, 0, 0.001074943, 0.0009992332, 0.001114727, -0.000641254, -0.001585734, -9.817112, 0, 0, 29.24188, 1, 1, 1000, 1000
 73254020, 1, 0.00101278, 0.001329209, 0.0009176168, -0.0007969572, -0.0008988915, -9.816389, 0, 0, 29.24194, 1, 1, 760, 800
 73294004, 0, 0.001050379, 0.001063385, 0.001113753, -0.0003005534, -0.0003383306, -9.817591, 0, 0, 29.24398, 1, 1, 1000, 1000
 73294004, 1, 0.0009940849, 0.001022382, 0.001128986, -0.0008840944, -0.0008709279, -9.816795, 0, 0, 29.24404, 1, 1, 760, 800
 73333988, 0, 0.0009904925, 0.001032075, 0.001016669, -0.00207523, -0.001684693, -9.817148, 0, 0, 29.24608, 1, 1, 1000, 1000
 73333988, 1, 0.0009486499, 0.001062729, 0.001113773, -0.0005595243, -0.001149777, -9.819064, 0, 0, 29.24608, 1, 1, 760, 800
 73373972, 0, 0.001062465, 0.001072122, 0.001089209, -0.001072751, -0.00121663, -9.81801, 0, 0, 29.24818, 1, 1, 1000, 1000
 73373972, 1, 0.0008196722, 0.001150667, 0.001139127, -0.0007966246, 0.0003069751, -9.819394, 0, 0, 29.24818, 1, 1, 760, 800
 73413956, 0, 0.0009635587, 0.001004899, 0.001044917, -0.001591794, -0.001392876, -9.817713, 0, 0, 29.25029, 1, 1, 1000, 1000
 73413956, 1, 0.001085501, 0.001226952, 0.001024298, 0.0001014869, -0.00399006, -9.818435, 0, 0, 29.25029, 1, 1, 760, 800
 73453940, 0, 0.001114796, 0.001002321, 0.001058315, -0.0001807021, -0.0007212143, -9.817552, 0, 0, 29.25238, 1, 1, 1000, 1000
 73453940, 1, 0.001206123, 0.0009799221, 0.0009720502, 0.0008110163, 5.169928E-05, -9.818104, 0, 0, 29.25238, 1, 1, 760, 800
 73493924, 0, 0.0009176986, 0.001075826, 0.001006915, -0.001673583, -0.0008873857, -9.81593, 0, 0, 29.25448, 1, 1, 1000, 1000
 73493924, 1, 0.0009131973, 0.001194837, 0.001017564, -0.002147945, 0.0009175207, -9.814594, 0, 0, 29.25448, 1, 1, 760, 800
 73533908, 0, 0.001030068, 0.001103449, 0.001094967, -0.0008559596, -0.0004620632, -9.817418, 0, 0, 29.25658, 1, 1, 1000, 1000
 73533908, 1, 0.0009385177, 0.001041923, 0.0009913516, 7.906294E-05, -0.001692702, -9.81777, 0, 0, 29.25658, 1, 1, 760, 800
 73573892, 0, 0.00108877, 0.001011603, 0.0009813111, -0.001340328, -0.0001173595, -9.816694, 0, 0, 29.25868, 1, 1, 1000, 1000
 73573892, 1, 0.000937762, 0.001320353, 0.0008000233, 0.0001426779, -0.001656593, -9.817614, 0, 0, 29.25868, 1, 1, 760, 800
 73613876, 0, 0.001059084, 0.001109961, 0.001038447, -0.0003105618, -0.000603637, -9.81813, 0, 0, 29.26078, 1, 1, 1000, 1000
 73613876, 1, 0.001048532, 0.001156647, 0.000915033, -0.001356596, -0.0001145939, -9.819995, 0, 0, 29.26078, 1, 1, 760, 800
 73653860, 0, 0.001069512, 0.001045351, 0.001122137, -0.001386921, -0.001936556, -9.817427, 0, 0, 29.26288, 1, 1, 1000, 1000
 73653860, 1, 0.001115205, 0.001067722, 0.0009181034, -0.00136413, -0.000968238, -9.817469, 0, 0, 29.26288, 1, 1, 760, 800
 73693844, 0, 0.001080452, 0.001052156, 0.001090805, -0.0009604434, -0.001079593, -9.818231, 0, 0, 29.26498, 1, 1, 1000, 1000
 73693844, 1, 0.001193937, 0.0008751085, 0.0008987901, -0.002446864, -0.002588253, -9.816843, 0, 0, 29.26498, 1, 1, 760, 800
 73733828, 0, 0.001083178, 0.001099156, 0.001181873, 0.0003480572, -0.0008598302, -9.817488, 0, 0, 29.26708, 1, 1, 1000, 1000
 73733828, 1, 0.001028541, 0.0009584421, 0.001294515, -0.0003024672, 0.0002445608, -9.81893, 0, 0, 29.26702, 1, 1, 760, 800
 73773812, 0, 0.001056678, 0.0010346, 0.001032527, -0.0005334871, -0.0006588583, -9.817122, 0, 0, 29.26917, 1, 1, 1000, 1000
 73773812, 1, 0.001041048, 0.001127123, 0.001096661, -0.002905425, -0.001221503, -9.820465, 0, 0, 29.26912, 1, 1, 760, 800
 73813796, 0, 0.001013989, 0.001096742, 0.001059018, -0.0002548727, -0.00139235, -9.817877, 0, 0, 29.27127, 1, 1, 1000, 1000
 73813796, 1, 0.001292168, 0.0009368155, 0.001207549, -0.000972258, -5.255636E-05, -9.816421, 0, 0, 29.27122, 1, 1, 760, 800
 73853780, 0, 0.001031688, 0.001029177, 0.001033354, -0.0002365651, -0.001220279, -9.816689, 0, 0, 29.27337, 1, 1, 1000, 1000
 73853780, 1, 0.00102751, 0.00122677, 0.0009873213, -0.0004236554, -0.003125561, -9.819963, 0, 0, 29.27332, 1, 1, 760, 800
 73893764, 0, 0.001090617, 0.001094916, 0.001025158, -0.00148468, -0.0004479633, -9.817288, 0, 0, 29.27546, 1, 1, 1000, 1000
 73893764, 1, 0.001153314, 0.0008589452, 0.0008503593, -0.002177447, -0.002270325, -9.816925, 0, 0, 29.27541, 1, 1, 760, 800
 73933748, 0, 0.001027313, 0.001097376, 0.001021318, -3.077641E-05, -0.001023713, -9.815441, 0, 0, 29.27756, 1, 1, 1000, 1000
 73933748, 1, 0.001325408, 0.001335428, 0.001342401, -0.002215138, -0.002824433, -9.819485, 0, 0, 29.27751, 1, 1, 760, 800
 73973732, 0, 0.001078665, 0.001046453, 0.001022082, -0.001968411, -0.00126518, -9.816637, 0, 0, 29.27966, 1, 1, 1000, 1000
 73973732, 1, 0.001086282, 0.001209083, 0.001103521, -0.0001796992, 1.731691E-05, -9.818261, 0, 0, 29.27961, 1, 1, 760, 800
 74013716, 0, 0.001073881, 0.001029797, 0.001107609, -0.001376562, -0.001579878, -9.817636, 0, 0, 29.28175, 1, 1, 1000, 1000
 74013716, 1, 0.0009537716, 0.001243855, 0.001066863, -0.001164906, 0.001233916, -9.817566, 0, 0, 29.2817, 1, 1, 760, 800
 74053700, 0, 0.001044921, 0.001076939, 0.001007033, 0.000166483, -0.001503713, -9.816705, 0, 0, 29.28385, 1, 1, 1000, 1000
 74053700, 1, 0.001004864, 0.0009156546, 0.001059922, -0.0006288759, -0.001903716, -9.819057, 0, 0, 29.2838, 1, 1, 760, 800
 74093684, 0, 0.001146527, 0.001101914, 0.001039545, -0.001318301, -0.001776999, -9.816992, 0, 0, 29.28594, 1, 1, 1000, 1000
 74093684, 1, 0.0009866829, 0.0007903621, 0.001252958, 0.0008500204, 0.0003700934, -9.816539, 0, 0, 29.28589, 1, 1, 760, 800
 74133668, 0, 0.001009138, 0.001009127, 0.001046056, -0.001697829, -0.0008127647, -9.818192, 0, 0, 29.28804, 1, 1, 1000, 1000
 74133668, 1, 0.0009441441, 0.00128661, 0.0009279874, -0.0009105125, 0.0005864963, -9.815998, 0, 0, 29.28799, 1, 1, 760, 800
 74173652, 0, 0.001119232, 0.001142163, 0.001060739, -0.001283775, -0.0009436591, -9.816755, 0, 0, 29.29013, 1, 1, 1000, 1000
 74173652, 1, 0.0009619045, 0.00121467, 0.001030886, -0.001421471, 0.001024796, -9.816585, 0, 0, 29.29008, 1, 1, 760, 800
 74213636, 0, 0.00115726, 0.001110196, 0.001047988, -0.0005493785, -0.001644214, -9.81721, 0, 0, 29.29223, 1, 1, 1000, 1000
 74213636, 1, 0.0007557217, 0.001017423, 0.001028807, -0.00155154, -0.0001079472, -9.817513, 0, 0, 29.29218, 1, 1, 760, 800
 74253620, 0, 0.001099229, 0.00104301, 0.001122822, -0.00112533, -0.000792966, -9.817881, 0, 0, 29.29432, 1, 1, 1000, 1000
 74253620, 1, 0.0009227314, 0.001360225, 0.00120012, -0.0006972156, -0.0002143238, -9.817122, 0, 0, 29.29427, 1, 1, 760, 800
 74293604, 0, 0.001018285, 0.001128922, 0.001108443, -0.0003108642, -0.001553195, -9.818174, 0, 0, 29.29642, 1, 1, 1000, 1000
 74293604, 1, 0.001116259, 0.001068061, 0.001051368, -0.002061743, -0.001669922, -9.8201, 0, 0, 29.29636, 1, 1, 760, 800
 74334421, 0, 0.001051823, 0.001054726, 0.001071085, -0.0004619177, -0.002107464, -9.81777, 0, 0, 29.29856, 1, 1, 1000, 1000
 74334421, 1, 0.001085506, 0.001002458, 0.001083814, -0.0002210783, -0.002039676, -9.818608, 0, 0, 29.29856, 1, 1, 760, 800
 74374405, 0, 0.0009996974, 0.001070078, 0.001051027, -0.000910763, -0.001066449, -9.817851, 0, 0, 29.30066, 1, 1, 1000, 1000
 74374405, 1, 0.001211586, 0.001190653, 0.0009691996, 0.0003930958, -0.0006040757, -9.817181, 0, 0, 29.30066, 1, 1, 760, 800
 74414389, 0, 0.001099485, 0.001106576, 0.001111209, -0.002185513, -0.001142443, -9.816675, 0, 0, 29.30275, 1, 1, 1000, 1000
 74414389, 1, 0.001001398, 0.001075627, 0.0009141905, -0.004607933, 0.000455952, -9.81688, 0, 0, 29.30275, 1, 1, 760, 800
 74454373, 0, 0.0009537837, 0.001035973, 0.001063029, -0.00150828, -0.001566353, -9.818171, 0, 0, 29.30484, 1, 1, 1000, 1000
 74454373, 1, 0.0009263038, 0.0008983503, 0.001008308, -0.0002554956, -0.0006065075, -9.818716, 0, 0, 29.30484, 1, 1, 760, 800
 74494357, 0, 0.001034344, 0.001030656, 0.001071646, -0.001533542, -0.0006291576, -9.816788, 0, 0, 29.30693, 1, 1, 1000, 1000
 74494357, 1, 0.00107024, 0.00130994, 0.001009761, -0.0007821709, -0.0003009638, -9.81588, 0, 0, 29.30693, 1, 1, 760, 800
 74534341, 0, 0.0009733943, 0.001013461, 0.001027729, -0.001008555, -0.001862301, -9.817507, 0, 0, 29.30903, 1, 1, 1000, 1000
 74534341, 1, 0.001033033, 0.001212837, 0.001018704, -0.001766051, -0.003652478, -9.819078, 0, 0, 29.30903, 1, 1, 760, 800
 74574325, 0, 0.001055484, 0.001072926, 0.001087144, -0.001210507, -0.0007148478, -9.817581, 0, 0, 29.31112, 1, 1, 1000, 1000
 74574325, 1, 0.0009389943, 0.0009245339, 0.001025647, 0.001037567, -0.0004965507, -9.814371, 0, 0, 29.31112, 1, 1, 760, 800
 74614309, 0, 0.0009778293, 0.001030975, 0.001064837, -0.0003886889, -0.0003104545, -9.816915, 0, 0, 29.31321, 1, 1, 1000, 1000
 74614309, 1, 0.0009428443, 0.001093486, 0.001107674, -0.00281767, 0.001131427, -9.817415, 0, 0, 29.31321, 1, 1, 760, 800
 74654293, 0, 0.00103055, 0.001122698, 0.001045281, -0.001446309, -0.001752906, -9.818029, 0, 0, 29.3153, 1, 1, 1000, 1000
 74654293, 1, 0.001257884, 0.001048775, 0.001010331, -0.0003047857, -0.001336239, -9.816654, 0, 0, 29.3153, 1, 1, 760, 800
 74694277, 0, 0.00105385, 0.001054761, 0.001087219, -0.001714723, -0.0008624613, -9.817413, 0, 0, 29.31739, 1, 1, 1000, 1000
 74694277, 1, 0.001190234, 0.001135047, 0.0009652562, -0.0007339091, 9.667157E-05, -9.815497, 0, 0, 29.31739, 1, 1, 760, 800
 74734261, 0, 0.00103599, 0.001132196, 0.001034485, -0.0009075395, -0.0009666986, -9.817607, 0, 0, 29.31948, 1, 1, 1000, 1000
 74734261, 1, 0.001133111, 0.001043331, 0.001038635, -0.001988005, -2.780957E-05, -9.819222, 0, 0, 29.31948, 1, 1, 760, 800
 74774245, 0, 0.001093084, 0.001051882, 0.00105354, -0.001136305, -0.001663245, -9.817187, 0, 0, 29.32158, 1, 1, 1000, 1000
 74774245, 1, 0.0009889104, 0.001184762, 0.001342138, 0.0005948192, -9.610174E-05, -9.817226, 0, 0, 29.32158, 1, 1, 760, 800
 74814229, 0, 0.00111553, 0.00105905, 0.001120046, -0.0004284297, -0.001644204, -9.816771, 0, 0, 29.32367, 1, 1, 1000, 1000
 74814229, 1, 0.001184403, 0.0009007333, 0.001096157, 0.0005027595, -0.003278099, -9.816729, 0, 0, 29.32367, 1, 1, 760, 800
 74854213, 0, 0.001060863, 0.001073648, 0.001069432, -0.001141788, 0.0001635899, -9.817072, 0, 0, 29.32575, 1, 1, 1000, 1000
 74854213, 1, 0.001156187, 0.001139579, 0.001123033, -0.001360635, -0.001068099, -9.818435, 0, 0, 29.32575, 1, 1, 760, 800
 74894197, 0, 0.001016961, 0.001040509, 0.00111247, -0.001818547, -0.0009223704, -9.817829, 0, 0, 29.32784, 1, 1, 1000, 1000
 74894197, 1, 0.00112883, 0.001217555, 0.001104162, 6.287581E-06, -0.002143667, -9.817737, 0, 0, 29.32784, 1, 1, 760, 800
 74934181, 0, 0.001088605, 0.00105653, 0.001087177, -0.0009686926, -0.0009477675, -9.817911, 0, 0, 29.32993, 1, 1, 1000, 1000
 74934181, 1, 0.001260448, 0.001220977, 0.001050037, -0.001043397, -0.0004120461, -9.81713, 0, 0, 29.32993, 1, 1, 760, 800
 74974165, 0, 0.001060229, 0.00107858, 0.001083319, -0.0004990723, -0.0008028483, -9.816903, 0, 0, 29.33202, 1, 1, 1000, 1000
 74974165, 1, 0.001091861, 0.001126589, 0.0009963975, -0.001855072, 0.001001282, -9.816849, 0, 0, 29.33202, 1, 1, 760, 800
 75014149, 0, 0.001072798, 0.001069264, 0.001079581, -0.00146824, -0.0001985094, -9.817272, 0, 0, 29.33411, 1, 1, 1000, 1000
 75014149, 1, 0.001063046, 0.000999695, 0.0009577581, -0.001575189, -0.0002493212, -9.819069, 0, 0, 29.33411, 1, 1, 760, 800
 75054133, 0, 0.001093018, 0.001056017, 0.001074318, -0.001037697, -0.001607792, -9.817126, 0, 0, 29.33615, 1, 1, 1000, 1000
 75054133, 1, 0.001135835, 0.001241652, 0.001175061, 9.24593E-06, 0.0007938009, -9.817104, 0, 0, 29.3362, 1, 1, 760, 800
 75094117, 0, 0.001094565, 0.00105237, 0.001092516, -0.0003208923, -0.001559254, -9.817749, 0, 0, 29.33824, 1, 1, 1000, 1000
 75094117, 1, 0.001026745, 0.0009778053, 0.001328186, -0.002269312, 0.0007753241, -9.81749, 0, 0, 29.33829, 1, 1, 760, 800
 75134101, 0, 0.001086027, 0.001081242, 0.001042456, -0.001558447, -0.001025843, -9.817919, 0, 0, 29.34032, 1, 1, 1000, 1000
 75134101, 1, 0.0009266397, 0.001203811, 0.00106345, -0.0007276615, -0.002057759, -9.818094, 0, 0, 29.34038, 1, 1, 760, 800
 75174085, 0, 0.001020856, 0.00105102, 0.00116713, -1.987547E-05, -0.0005419187, -9.816957, 0, 0, 29.34241, 1, 1, 1000, 1000
 75174085, 1, 0.001126799, 0.001310623, 0.001106597, -0.0009590563, -9.244234E-05, -9.815166, 0, 0, 29.34246, 1, 1, 760, 800
 75214069, 0, 0.001154682, 0.001060699, 0.001069157, -0.001151123, -0.0005967524, -9.818085, 0, 0, 29.3445, 1, 1, 1000, 1000
 75214069, 1, 0.0009741837, 0.001064441, 0.001032413, -0.0004050323, -0.0001039899, -9.817268, 0, 0, 29.34455, 1, 1, 760, 800
 75254053, 0, 0.001154462, 0.001039344, 0.001008562, -0.0004958851, -0.0004703857, -9.815434, 0, 0, 29.34659, 1, 1, 1000, 1000
 75254053, 1, 0.0008923817, 0.001220238, 0.001145383, -0.0007526694, -0.001080559, -9.81775, 0, 0, 29.34664, 1, 1, 760, 800
 75294037, 0, 0.001013934, 0.0009981575, 0.00107612, -0.001414086, -0.0009533124, -9.817181, 0, 0, 29.34867, 1, 1, 1000, 1000
 75294037, 1, 0.001098415, 0.001119161, 0.000807647, -0.003453732, -0.001977911, -9.818013, 0, 0, 29.34873, 1, 1, 760, 800
 75334021, 0, 0.001007267, 0.0009809769, 0.001085806, -0.001133127, -0.001079341, -9.81636, 0, 0, 29.35076, 1, 1, 1000, 1000
 75334021, 1, 0.0009743463, 0.0008823122, 0.001317361, -0.001835229, 0.000705561, -9.818212, 0, 0, 29.35081, 1, 1, 760, 800
 75374005, 0, 0.0009832088, 0.001093568, 0.001074805, -0.0007129744, -0.0003600561, -9.818369, 0, 0, 29.35285, 1, 1, 1000, 1000
 75374005, 1, 0.0009252845, 0.001051935, 0.001089885, 0.001902932, -0.0004805702, -9.816277, 0, 0, 29.3529, 1, 1, 760, 800
 75413989, 0, 0.001090313, 0.001064012, 0.001095251, -0.001457522, -0.0003644631, -9.817141, 0, 0, 29.35493, 1, 1, 1000, 1000
 75413989, 1, 0.001046937, 0.00109953, 0.001158999, -0.0007128346, -0.001316248, -9.817369, 0, 0, 29.35493, 1, 1, 760, 800
 75453973, 0, 0.001105793, 0.001091019, 0.00111844, -0.0009725619, -0.001286389, -9.817291, 0, 0, 29.35702, 1, 1, 1000, 1000
 75453973, 1, 0.001170962, 0.0007479978, 0.001099559, -0.001260154, -0.002272789, -9.817087, 0, 0, 29.35702, 1, 1, 760, 800
 75493957, 0, 0.001096081, 0.001081885, 0.001079144, -0.001734062, -0.0009341566, -9.817508, 0, 0, 29.35911, 1, 1, 1000, 1000
 75493957, 1, 0.0009597553, 0.001219879, 0.001023078, -0.00029467, -0.0002513667, -9.816748, 0, 0, 29.35911, 1, 1, 760, 800
 75533941, 0, 0.001020507, 0.001060789, 0.001094067, -0.0002989983, -0.001536213, -9.817555, 0, 0, 29.36119, 1, 1, 1000, 1000
 75533941, 1, 0.001093536, 0.001058568, 0.0009971887, -0.00157581, -0.0005744829, -9.816596, 0, 0, 29.36119, 1, 1, 760, 800
 75573925, 0, 0.001063926, 0.001084489, 0.001085183, -7.937226E-05, -0.0004792993, -9.817062, 0, 0, 29.36328, 1, 1, 1000, 1000
 75573925, 1, 0.001345578, 0.001325948, 0.001195046, -0.0002782154, 0.001902707, -9.817923, 0, 0, 29.36328, 1, 1, 760, 800
 75613909, 0, 0.001111939, 0.00108295, 0.001021271, -0.0009349002, -0.001503144, -9.817541, 0, 0, 29.36536, 1, 1, 1000, 1000
 75613909, 1, 0.00094687, 0.001001734, 0.000984517, -0.001255237, -0.0005675456, -9.818107, 0, 0, 29.36536, 1, 1, 760, 800
 75653893, 0, 0.001116777, 0.001094587, 0.001067756, -0.001676598, -0.000516473, -9.816702, 0, 0, 29.36744, 1, 1, 1000, 1000
 75653893, 1, 0.001011804, 0.001072786, 0.0009648637, -0.0005115991, -0.00176417, -9.816202, 0, 0, 29.36744, 1, 1, 760, 800
 75693877, 0, 0.001096809, 0.001111756, 0.001095129, -0.001727245, -0.00155859, -9.817015, 0, 0, 29.36953, 1, 1, 1000, 1000
 75693877, 1, 0.0009438423, 0.001038091, 0.000992056, 1.381361E-05, 0.0007878629, -9.81862, 0, 0, 29.36953, 1, 1, 760, 800
 75733861, 0, 0.001057666, 0.001062324, 0.001090681, -0.0003568405, -0.0008820833, -9.817635, 0, 0, 29.37161, 1, 1, 1000, 1000
 75733861, 1, 0.001061298, 0.0009799141, 0.001141628, -0.0002946273, -0.0008704109, -9.817537, 0, 0, 29.37161, 1, 1, 760, 800
 75773845, 0, 0.001122305, 0.00107877, 0.001117214, -0.000852816, -0.0009083759, -9.817366, 0, 0, 29.3737, 1, 1, 1000, 1000
 75773845, 1, 0.001129865, 0.001362809, 0.001025217, -0.0003364678, -0.0003535165, -9.817097, 0, 0, 29.3737, 1, 1, 760, 800
 75813829, 0, 0.001023907, 0.001082708, 0.001109008, -0.0003067382, -0.0005921368, -9.817184, 0, 0, 29.37578, 1, 1, 1000, 1000
 75813829, 1, 0.00105854, 0.001077498, 0.001079563, 0.0001199068, -0.001026012, -9.818965, 0, 0, 29.37573, 1, 1, 760, 800
 75853813, 0, 0.001001153, 0.001083774, 0.00108607, -0.0008600387, -0.002026618, -9.81668, 0, 0, 29.37786, 1, 1, 1000, 1000
 75853813, 1, 0.0009777752, 0.001000696, 0.001052962, -0.0009658919, -0.000482625, -9.818897, 0, 0, 29.37781, 1, 1, 760, 800
 75893797, 0, 0.001113942, 0.001004607, 0.001140545, -0.00023446, -0.002657148, -9.81802, 0, 0, 29.37995, 1, 1, 1000, 1000
 75893797, 1, 0.001047864, 0.001027043, 0.0007802066, -0.001070389, -0.002387078, -9.818309, 0, 0, 29.37989, 1, 1, 760, 800
 75933781, 0, 0.001027101, 0.001042419, 0.001160871, -0.000911549, -0.001499481, -9.817945, 0, 0, 29.38203, 1, 1, 1000, 1000
 75933781, 1, 0.001117834, 0.001099326, 0.001162774, 0.002415962, -0.002451263, -9.816084, 0, 0, 29.38198, 1, 1, 760, 800
 75973765, 0, 0.00106735, 0.001107713, 0.00116226, -0.0008137402, -0.002107228, -9.817353, 0, 0, 29.38411, 1, 1, 1000, 1000
 75973765, 1, 0.0009906091, 0.00116763, 0.0009677801, 6.371883E-05, 0.002463152, -9.81766, 0, 0, 29.38406, 1, 1, 760, 800
 76013749, 0, 0.001153337, 0.001017172, 0.001082356, -0.001143153, -0.001439757, -9.817414, 0, 0, 29.38619, 1, 1, 1000, 1000
 76013749, 1, 0.0007689547, 0.001209152, 0.0009512411, 0.00105216, -0.001882935, -9.814895, 0, 0, 29.38614, 1, 1, 760, 800
 76053733, 0, 0.001066981, 0.001071903, 0.001069899, -0.001716537, -0.001206646, -9.817113, 0, 0, 29.38828, 1, 1, 1000, 1000
 76053733, 1, 0.001092163, 0.001038982, 0.0009274502, -0.003201376, -0.002863669, -9.817073, 0, 0, 29.38822, 1, 1, 760, 800
 76093717, 0, 0.001128641, 0.001103549, 0.001095365, -0.0004077689, -0.001207266, -9.817747, 0, 0, 29.39036, 1, 1, 1000, 1000
 76093717, 1, 0.00095533, 0.001221408, 0.0009389648, -0.0002333054, -0.00135606, -9.817472, 0, 0, 29.3903, 1, 1, 760, 800
 76133701, 0, 0.001162561, 0.001016738, 0.001135267, -0.0008122539, -0.0003928539, -9.817474, 0, 0, 29.39244, 1, 1, 1000, 1000
 76133701, 1, 0.001224726, 0.0008863711, 0.001121962, -0.001748039, -0.00346393, -9.818108, 0, 0, 29.39239, 1, 1, 760, 800
 76173685, 0, 0.001070041, 0.001089681, 0.001026641, -0.00210592, -0.001551948, -9.819543, 0, 0, 29.39452, 1, 1, 1000, 1000
 76173685, 1, 0.0009221315, 0.0009458394, 0.00118494, 0.001287968, 0.0006778578, -9.817947, 0, 0, 29.39447, 1, 1, 760, 800
 76213669, 0, 0.001022266, 0.00107518, 0.001200061, -0.0001218307, 0.0006379193, -9.817295, 0, 0, 29.3966, 1, 1, 1000, 1000
 76213669, 1, 0.0009588711, 0.001001285, 0.001240786, -0.001526505, -0.002112585, -9.81631, 0, 0, 29.39655, 1, 1, 760, 800
 76253653, 0, 0.001020945, 0.001107981, 0.001115568, -0.0002454551, -0.001410642, -9.818197, 0, 0, 29.39868, 1, 1, 1000, 1000
 76253653, 1, 0.0008627631, 0.001031588, 0.001054218, 0.001267635, -0.001133031, -9.817294, 0, 0, 29.39863, 1, 1, 760, 800
 76293637, 0, 0.001124419, 0.001125744, 0.001070781, -0.0002630767, -0.001063837, -9.816711, 0, 0, 29.40076, 1, 1, 1000, 1000
 76293637, 1, 0.0009357306, 0.0008396299, 0.001015167, -0.0002761615, -0.00173708, -9.818408, 0, 0, 29.40071, 1, 1, 760, 800
 76333621, 0, 0.001055386, 0.001167725, 0.001099446, -0.001281966, -0.001491761, -9.81761, 0, 0, 29.40284, 1, 1, 1000, 1000
 76333621, 1, 0.00105936, 0.001147419, 0.001220384, -0.001457584, -0.0006437924, -9.816972, 0, 0, 29.40279, 1, 1, 760, 800
 76373605, 0, 0.001123686, 0.001030538, 0.001071716, -0.0006184313, -0.000753007, -9.818205, 0, 0, 29.40492, 1, 1, 1000, 1000
 76373605, 1, 0.001180298, 0.001131785, 0.0009180909, -0.0005440069, -0.003330991, -9.818406, 0, 0, 29.40487, 1, 1, 760, 800
 76414422, 0, 0.001126632, 0.001055336, 0.001046382, -0.0009362914, -0.002472426, -9.817771, 0, 0, 29.40705, 1, 1, 1000, 1000
 76414422, 1, 0.00106678, 0.001049634, 0.001318896, -0.00111268, -0.0007664751, -9.817059, 0, 0, 29.40705, 1, 1, 760, 800
 76454406, 0, 0.001077011, 0.001129393, 0.001027749, -0.0004197882, -0.0005694773, -9.816862, 0, 0, 29.40913, 1, 1, 1000, 1000
 76454406, 1, 0.001167659, 0.0009744327, 0.001027033, -0.0001229884, -0.0003566265, -9.820542, 0, 0, 29.40913, 1, 1, 760, 800
 76494390, 0, 0.001082374, 0.001064446, 0.001059753, -0.00103619, -0.0007292426, -9.816628, 0, 0, 29.41121, 1, 1, 1000, 1000
 76494390, 1, 0.001277505, 0.001264302, 0.001118055, -0.001972912, -0.004033288, -9.818118, 0, 0, 29.41121, 1, 1, 760, 800
 76534374, 0, 0.001085441, 0.001147445, 0.00112922, -0.0007280447, -0.001757601, -9.817318, 0, 0, 29.41328, 1, 1, 1000, 1000
 76534374, 1, 0.001166447, 0.001192666, 0.001122284, -0.001123228, -0.001481693, -9.817335, 0, 0, 29.41328, 1, 1, 760, 800
 76574358, 0, 0.001080973, 0.001061649, 0.001085563, -0.0009444189, -0.001074999, -9.816793, 0, 0, 29.41536, 1, 1, 1000, 1000
 76574358, 1, 0.001198992, 0.001040806, 0.000803303, -0.002265497, -0.0008618378, -9.819374, 0, 0, 29.41536, 1, 1, 760, 800
 76614342, 0, 0.001162964, 0.001129221, 0.001059746, -0.0005451484, -0.0003567833, -9.816965, 0, 0, 29.41744, 1, 1, 1000, 1000
 76614342, 1, 0.001156716, 0.001200679, 0.001131452, -0.001762604, -0.00155668, -9.814793, 0, 0, 29.41744, 1, 1, 760, 800
 76654326, 0, 0.001047927, 0.001039615, 0.001080301, -0.0003170908, -0.0008724399, -9.817287, 0, 0, 29.41952, 1, 1, 1000, 1000
 76654326, 1, 0.00118341, 0.001335484, 0.001140261, -0.002292488, -0.001950196, -9.813465, 0, 0, 29.41952, 1, 1, 760, 800
 76694310, 0, 0.001110996, 0.001116966, 0.001030998, 0.0003183708, -0.001845393, -9.817912, 0, 0, 29.4216, 1, 1, 1000, 1000
 76694310, 1, 0.0009398132, 0.00119143, 0.0009765585, 0.0007630248, 0.001714095, -9.819118, 0, 0, 29.4216, 1, 1, 760, 800
 76734294, 0, 0.001084672, 0.001150964, 0.001061187, -0.002152849, -0.001156646, -9.81809, 0, 0, 29.42367, 1, 1, 1000, 1000
 76734294, 1, 0.001244635, 0.001177104, 0.001086767, -0.00115197, -0.001671088, -9.816709, 0, 0, 29.42367, 1, 1, 760, 800
 76774278, 0, 0.001114248, 0.001081152, 0.00105268, -0.00149406, -0.001219554, -9.817394, 0, 0, 29.42575, 1, 1, 1000, 1000
 76774278, 1, 0.0008720984, 0.001312705, 0.001094719, -0.002228746, -0.000239715, -9.816626, 0, 0, 29.42575, 1, 1, 760, 800
 76814262, 0, 0.001073453, 0.001112111, 0.001139641, 7.802751E-05, -0.001090792, -9.817912, 0, 0, 29.42783, 1, 1, 1000, 1000
 76814262, 1, 0.00109089, 0.0009053953, 0.001288485, 0.0007614836, -0.0007303747, -9.813933, 0, 0, 29.42783, 1, 1, 760, 800
 76854246, 0, 0.001073324, 0.001093303, 0.00108695, 0.0005178482, -0.002574168, -9.817161, 0, 0, 29.4299, 1, 1, 1000, 1000
 76854246, 1, 0.0009056831, 0.001165502, 0.001005216, -0.0004386783, 0.0005313762, -9.818289, 0, 0, 29.4299, 1, 1, 760, 800
 76894230, 0, 0.001072372, 0.001082692, 0.001126018, -0.0007571694, -0.0005808707, -9.81637, 0, 0, 29.43198, 1, 1, 1000, 1000
 76894230, 1, 0.001046729, 0.001262171, 0.001164991, -8.199608E-05, -0.001397133, -9.81877, 0, 0, 29.43198, 1, 1, 760, 800
 76934214, 0, 0.001063073, 0.001064105, 0.001101892, -0.001330774, 0.0003811497, -9.818371, 0, 0, 29.43405, 1, 1, 1000, 1000
 76934214, 1, 0.001099271, 0.00116637, 0.001185414, -0.001511427, -0.002561343, -9.818624, 0, 0, 29.43405, 1, 1, 760, 800
 76974198, 0, 0.001073251, 0.00112325, 0.001076306, -0.0008586012, -0.002043375, -9.817069, 0, 0, 29.43613, 1, 1, 1000, 1000
 76974198, 1, 0.001029655, 0.00113267, 0.0009963874, -0.001245618, -0.001868682, -9.818001, 0, 0, 29.43613, 1, 1, 760, 800
 77014182, 0, 0.001101543, 0.00104052, 0.001055691, -0.0002571021, -0.001128858, -9.817192, 0, 0, 29.43821, 1, 1, 1000, 1000
 77014182, 1, 0.00111976, 0.001280682, 0.001147646, 0.001259204, -0.0025386, -9.819363, 0, 0, 29.43821, 1, 1, 760, 800
 77054166, 0, 0.001132332, 0.00108956, 0.001098704, -0.0009261055, -0.001046142, -9.816589, 0, 0, 29.44028, 1, 1, 1000, 1000
 77054166, 1, 0.001030641, 0.001056442, 0.001090185, -0.001817977, -0.002119776, -9.815767, 0, 0, 29.44028, 1, 1, 760, 800
 77094150, 0, 0.001124628, 0.001047291, 0.001108201, -0.001136073, -0.001838672, -9.817959, 0, 0, 29.44235, 1, 1, 1000, 1000
 77094150, 1, 0.001069338, 0.0009288469, 0.001047889, -0.001087991, -0.001805427, -9.819057, 0, 0, 29.44235, 1, 1, 760, 800
 77134134, 0, 0.001091006, 0.001126689, 0.001097125, -0.001494406, -0.001446876, -9.817734, 0, 0, 29.44438, 1, 1, 1000, 1000
 77134134, 1, 0.001190357, 0.001146817, 0.001231365, 0.0003123127, -0.0001430274, -9.818689, 0, 0, 29.44443, 1, 1, 760, 800
 77174118, 0, 0.001080431, 0.001132521, 0.001121972, -0.0004204263, -0.001313853, -9.817276, 0, 0, 29.44645, 1, 1, 1000, 1000
 77174118, 1, 0.00113657, 0.00113331, 0.001140852, -0.0002505411, -0.003202837, -9.814972, 0, 0, 29.4465, 1, 1, 760, 800
 77214102, 0, 0.001151638, 0.001046417, 0.001100016, -0.0004766939, -0.0006155022, -9.81811, 0, 0, 29.44852, 1, 1, 1000, 1000
 77214102, 1, 0.001147423, 0.001253665, 0.000923751, -0.003730528, -0.001677538, -9.818062, 0, 0, 29.44858, 1, 1, 760, 800
 77254086, 0, 0.001155692, 0.001077071, 0.001091697, -0.001686708, -0.0008982863, -9.81708, 0, 0, 29.4506, 1, 1, 1000, 1000
 77254086, 1, 0.001304986, 0.001054145, 0.001174895, -0.001824746, -0.0009392272, -9.81806, 0, 0, 29.45065, 1, 1, 760, 800
 77294070, 0, 0.001139184, 0.001127815, 0.001084817, -0.0006347978, -0.001975293, -9.81746, 0, 0, 29.45267, 1, 1, 1000, 1000
 77294070, 1, 0.001184901, 0.001163361, 0.001175988, -0.001410543, -0.001932376, -9.818956, 0, 0, 29.45272, 1, 1, 760, 800
 77334054, 0, 0.0011124, 0.00112859, 0.001113222, 0.0007584474, -0.001345009, -9.817906, 0, 0, 29.45474, 1, 1, 1000, 1000
 77334054, 1, 0.001019306, 0.001179436, 0.001042651, -0.001695639, 3.93167E-05, -9.818113, 0, 0, 29.45479, 1, 1, 760, 800
 77374038, 0, 0.001064413, 0.001081654, 0.001103723, -0.001318878, 0.0004837858, -9.818007, 0, 0, 29.45682, 1, 1, 1000, 1000
 77374038, 1, 0.0009683878, 0.00119589, 0.001160054, -0.001273027, -0.002248593, -9.819118, 0, 0, 29.45687, 1, 1, 760, 800
 77414022, 0, 0.001075365, 0.001076358, 0.001130583, -0.0006017963, -0.001096675, -9.816186, 0, 0, 29.45889, 1, 1, 1000, 1000
 77414022, 1, 0.001010719, 0.001042751, 0.001044164, -0.0006088789, 0.001565438, -9.817954, 0, 0, 29.45894, 1, 1, 760, 800
 77454006, 0, 0.001111502, 0.001128359, 0.001095978, -0.0001628245, 0.0001517256, -9.816828, 0, 0, 29.46096, 1, 1, 1000, 1000
 77454006, 1, 0.00125067, 0.0008986333, 0.001133665, -0.001325211, -0.001921531, -9.813979, 0, 0, 29.46101, 1, 1, 760, 800
 77493990, 0, 0.00111487, 0.001128953, 0.001119241, -0.0006507638, -0.0009117463, -9.816756, 0, 0, 29.46303, 1, 1, 1000, 1000
 77493990, 1, 0.0009832224, 0.001299545, 0.00116383, 0.0004445959, -0.001066001, -9.818418, 0, 0, 29.46303, 1, 1, 760, 800
 77533974, 0, 0.001134675, 0.001085503, 0.001037114, -0.0006321481, -0.0006543687, -9.817142, 0, 0, 29.4651, 1, 1, 1000, 1000
 77533974, 1, 0.00100402, 0.001198496, 0.001115181, -0.001609646, -0.002367639, -9.820594, 0, 0, 29.4651, 1, 1, 760, 800
 77573958, 0, 0.001110984, 0.001179962, 0.001107985, -0.0007904476, -0.001561115, -9.817966, 0, 0, 29.46717, 1, 1, 1000, 1000
 77573958, 1, 0.001122069, 0.001023632, 0.001165282, -0.0007298884, -0.00225109, -9.819949, 0, 0, 29.46717, 1, 1, 760, 800
 77613942, 0, 0.001131541, 0.001091375, 0.001087689, -0.001177007, -0.001553239, -9.817396, 0, 0, 29.46924, 1, 1, 1000, 1000
 77613942, 1, 0.0009743042, 0.001217248, 0.000920331, 0.0004071087, -0.001092806, -9.816547, 0, 0, 29.46924, 1, 1, 760, 800
 77653926, 0, 0.001058329, 0.001082466, 0.00114538, -0.001511089, -0.0005858308, -9.818348, 0, 0, 29.47132, 1, 1, 1000, 1000
 77653926, 1, 0.001060049, 0.001136982, 0.001095439, -0.001551021, 0.001644463, -9.817982, 0, 0, 29.47132, 1, 1, 760, 800
 77693910, 0, 0.001115219, 0.001148275, 0.001125263, -0.0007439939, -0.0004476939, -9.817631, 0, 0, 29.47338, 1, 1, 1000, 1000
 77693910, 1, 0.001167598, 0.001328764, 0.001078556, -0.001064597, -0.001355539, -9.817649, 0, 0, 29.47338, 1, 1, 760, 800
 77733894, 0, 0.001111514, 0.00111561, 0.001140233, -0.001541149, -0.001967065, -10.18164, 0, 0, 29.47546, 1, 1, 1000, 1000
 77733894, 1, 0.0009739916, 0.0008558448, 0.0008952495, -0.002166439, 0.0004625386, -10.18243, 0, 0, 29.47546, 1, 1, 760, 800
 77773878, 0, 0.001108392, 0.001164388, 0.001113382, -0.000845589, -0.001601613, -10.85118, 0, 0, 29.47753, 1, 1, 1000, 1000
 77773878, 1, 0.001235126, 0.001225957, 0.001143439, -0.001836773, 0.0001746776, -10.84903, 0, 0, 29.47753, 1, 1, 760, 800
 77813862, 0, 0.001117252, 0.001118022, 0.001102363, -0.0006281064, -0.001066526, -11.10479, 0, 0, 29.4796, 1, 1, 1000, 1000
 77813862, 1, 0.0009673819, 0.001209598, 0.001233517, -0.001110052, -0.001713103, -11.10862, 0, 0, 29.4796, 1, 1, 760, 800
 77853846, 0, 0.001058286, 0.001157802, 0.001128569, -0.0007958098, -0.001548298, -11.19207, 0, 0, 29.48166, 1, 1, 1000, 1000
 77853846, 1, 0.001129141, 0.001197327, 0.0009107728, -0.0009640016, -0.001743096, -11.19528, 0, 0, 29.48166, 1, 1, 760, 800
 77893830, 0, 0.001073238, 0.001155882, 0.00107556, -0.0008082607, -0.0003427774, -11.21598, 0, 0, 29.48373, 1, 1, 1000, 1000
 77893830, 1, 0.001101902, 0.001256688, 0.001106241, 0.0003674082, -0.003977265, -11.2197, 0, 0, 29.48368, 1, 1, 760, 800
 77933814, 0, 0.001181462, 0.001100776, 0.0011643, -0.001403936, -0.001364949, -11.2137, 0, 0, 29.4858, 1, 1, 1000, 1000
 77933814, 1, 0.001045661, 0.001225302, 0.001182546, -0.0007760052, -0.0004307447, -11.21697, 0, 0, 29.48575, 1, 1, 760, 800
 77973798, 0, 0.001099199, 0.001057229, 0.001090431, -0.001620105, -0.0006640751, -11.1972, 0, 0, 29.48787, 1, 1, 1000, 1000
 77973798, 1, 0.001006831, 0.00116894, 0.001165647, -0.00266393, -0.00326612, -11.20488, 0, 0, 29.48782, 1, 1, 760, 800
 78013782, 0, 0.00108428, 0.001109629, 0.001086504, -0.000649176, -0.000892463, -11.18092, 0, 0, 29.48994, 1, 1, 1000, 1000
 78013782, 1, 0.001191665, 0.001149211, 0.00118476, -0.001581652, -0.001397758, -11.18701, 0, 0, 29.48989, 1, 1, 760, 800
 78053766, 0, 0.001116797, 0.001153324, 0.001134586, -0.0002791768, -0.001571426, -11.15502, 0, 0, 29.49201, 1, 1, 1000, 1000
 78053766, 1, 0.001105562, 0.001158449, 0.001038212, -0.001947912, -0.0003092503, -11.16393, 0, 0, 29.49195, 1, 1, 760, 800
 78093750, 0, 0.001183739, 0.001096794, 0.001129975, -0.0008718235, -0.0004079816, -11.13271, 0, 0, 29.49408, 1, 1, 1000, 1000
 78093750, 1, 0.001020792, 0.001175223, 0.00105844, -0.002070111, -0.002762502, -11.13988, 0, 0, 29.49402, 1, 1, 760, 800
 78133734, 0, 0.001108874, 0.001136222, 0.001078755, -0.00075646, -0.00237804, -11.1123, 0, 0, 29.49614, 1, 1, 1000, 1000
 78133734, 1, 0.001095605, 0.001079849, 0.00121655, -0.003909606, -0.001954144, -11.12295, 0, 0, 29.49609, 1, 1, 760, 800
 78173718, 0, -0.04222095, -0.04064221, 0.001072849, 0.000882508, -0.001892341, -13.23296, 0, 0, 29.49821, 1, 1, 1000, 1000
 78173718, 1, -0.04237837, -0.04068875, 0.001281581, 0.002858606, -0.003023013, -13.1933, 0, 0, 29.49816, 1, 1, 760, 800
 78213702, 0, -0.04998381, -0.04867114, 0.001114779, -0.002138584, -0.0005138248, -15.91296, 0, 0, 29.50027, 1, 1, 1000, 1000
 78213702, 1, -0.04961804, -0.04835309, 0.001013341, -0.001900175, -0.000882449, -15.88151, 0, 0, 29.50022, 1, 1, 760, 800
 78253686, 0, -0.04649511, -0.04440182, 0.0009661477, -0.01302584, 0.0117676, -16.03941, 0, 0, 29.50234, 1, 1, 1000, 1000
 78253686, 1, -0.04653683, -0.04428432, 0.0008197214, -0.0115161, 0.01165959, -16.01797, 0, 0, 29.50229, 1, 1, 760, 800
 78293670, 0, -0.03559858, -0.03494529, 0.0009812496, -0.02324354, 0.02163182, -15.25828, 0, 0, 29.50441, 1, 1, 1000, 1000
 78293670, 1, -0.0356939, -0.03478792, 0.0008217038, -0.02603195, 0.02147559, -15.24901, 0, 0, 29.50436, 1, 1, 760, 800
 78333654, 0, -0.02494645, -0.02267098, 0.0008353508, -0.02919707, 0.02892588, -14.17767, 0, 0, 29.50647, 1, 1, 1000, 1000
 78333654, 1, -0.02473841, -0.0223775, 0.0008063596, -0.02769083, 0.02865521, -14.17709, 0, 0, 29.50642, 1, 1, 760, 800
 78373638, 0, -0.01499109, -0.01474816, 0.0008276413, -0.02994625, 0.02904375, -13.05362, 0, 0, 29.50854, 1, 1, 1000, 1000
 78373638, 1, -0.01495066, -0.01460844, 0.0008400086, -0.03156648, 0.02666686, -13.06054, 0, 0, 29.50849, 1, 1, 760, 800
 78413622, 0, -0.004169472, -0.004724766, 0.0007142003, -0.02536477, 0.02402278, -12.03391, 0, 0, 29.5106, 1, 1, 1000, 1000
 78413622, 1, -0.004397472, -0.004756339, 0.0005732059, -0.02549055, 0.02323303, -12.04761, 0, 0, 29.51056, 1, 1, 760, 800
 78453606, 0, 0.004653299, 0.002574224, 0.0007367745, -0.01818609, 0.01674416, -11.23247, 0, 0, 29.51267, 1, 1, 1000, 1000
 78453606, 1, 0.004460472, 0.002676288, 0.0006831713, -0.01843086, 0.0141993, -11.24238, 0, 0, 29.51262, 1, 1, 760, 800
 78494423, 0, 0.01134006, 0.00958743, 0.0006489942, -0.01189654, 0.01072341, -10.66057, 0, 0, 29.51479, 1, 1, 1000, 1000
 78494423, 1, 0.01130691, 0.009584351, 0.0006482984, -0.01283346, 0.01083022, -10.66341, 0, 0, 29.51479, 1, 1, 760, 800
 78534407, 0, 0.01610492, 0.01517178, 0.0005771831, -0.005440187, 0.004269696, -10.35157, 0, 0, 29.51685, 1, 1, 1000, 1000
 78534407, 1, 0.01586898, 0.01523082, 0.000684552, -0.004099966, 0.002124571, -10.35193, 0, 0, 29.51685, 1, 1, 760, 800
 78574391, 0, 0.01824776, 0.01778185, 0.000401118, -0.00457244, 0.0004569853, -10.22432, 0, 0, 29.51892, 1, 1, 1000, 1000
 78574391, 1, 0.01818112, 0.01771756, 0.0004709008, -0.004485467, 0.002166788, -10.22431, 0, 0, 29.51892, 1, 1, 760, 800
 78614375, 0, 0.01927188, 0.01849052, 0.0003976603, -0.003172767, 0.0004210097, -10.2405, 0, 0, 29.52098, 1, 1, 1000, 1000
 78614375, 1, 0.01918077, 0.01854496, 0.0004563704, -0.002916931, -0.0002454555, -10.23871, 0, 0, 29.52098, 1, 1, 760, 800
 78654359, 0, 0.020734, 0.01973443, 0.0003556821, -0.001766677, 0.001242288, -10.33414, 0, 0, 29.52304, 1, 1, 1000, 1000
 78654359, 1, 0.0206316, 0.01966382, 0.0002287401, -0.005746923, 0.0001032639, -10.33155, 0, 0, 29.52304, 1, 1, 760, 800
 78694343, 0, 0.02103997, 0.02177541, 0.0002803204, -0.004827165, 0.002822072, -10.47605, 0, 0, 29.52511, 1, 1, 1000, 1000
 78694343, 1, 0.02089099, 0.02176979, 0.0003423231, -0.00119613, 0.001983342, -10.47471, 0, 0, 29.52511, 1, 1, 760, 800
 78734327, 0, 0.02059693, 0.0201168, 0.0001990426, -0.007055634, 0.005018936, -10.61895, 0, 0, 29.52717, 1, 1, 1000, 1000
 78734327, 1, 0.02056724, 0.02005274, 0.0001440685, -0.009079007, 0.005561606, -10.61836, 0, 0, 29.52717, 1, 1, 760, 800
 78774311, 0, 0.01791848, 0.01650932, 0.0002164239, -0.007696385, 0.005530017, -10.75446, 0, 0, 29.52923, 1, 1, 1000, 1000
 78774311, 1, 0.01799816, 0.01655086, 0.0004699016, -0.004898548, 0.004762077, -10.75632, 0, 0, 29.52923, 1, 1, 760, 800
 78814295, 0, 0.01429777, 0.01316858, 0.000145325, -0.00818627, 0.006702692, -10.83389, 0, 0, 29.5313, 1, 1, 1000, 1000
 78814295, 1, 0.01417193, 0.0129648, 0.0001545235, -0.008088406, 0.00732425, -10.83353, 0, 0, 29.5313, 1, 1, 760, 800
 78854279, 0, 0.01438085, 0.01438366, 0.0001607427, -0.008999584, 0.007377682, -10.88572, 0, 0, 29.53336, 1, 1, 1000, 1000
 78854279, 1, 0.01429314, 0.01461032, 0.0002189421, -0.009776546, 0.006176928, -10.88763, 0, 0, 29.53336, 1, 1, 760, 800
 78894263, 0, 0.01404792, 0.0155528, 6.910403E-05, -0.0106105, 0.008294878, -10.90261, 0, 0, 29.53542, 1, 1, 1000, 1000
 78894263, 1, 0.01409236, 0.01548878, 4.120052E-05, -0.0117373, 0.007931991, -10.90339, 0, 0, 29.53542, 1, 1, 760, 800
 78934247, 0, 0.01306547, 0.01456094, 6.87248E-05, -0.01148372, 0.009003141, -10.88419, 0, 0, 29.53748, 1, 1, 1000, 1000
 78934247, 1, 0.01295621, 0.01474915, -1.466493E-05, -0.01192143, 0.01000326, -10.88368, 0, 0, 29.53748, 1, 1, 760, 800
 78974231, 0, 0.010959, 0.01233565, 8.659747E-05, -0.01066239, 0.008892143, -10.84648, 0, 0, 29.53954, 1, 1, 1000, 1000
 78974231, 1, 0.01091715, 0.01252497, 0.0001307495, -0.01015569, 0.009451967, -10.84818, 0, 0, 29.53954, 1, 1, 760, 800
 79014215, 0, 0.009745021, 0.01044156, 6.277824E-05, -0.01096164, 0.008727629, -10.79809, 0, 0, 29.5416, 1, 1, 1000, 1000
 79014215, 1, 0.009637962, 0.0104504, 5.176935E-05, -0.009929923, 0.006509896, -10.80007, 0, 0, 29.5416, 1, 1, 760, 800
 79054199, 0, 0.008760215, 0.009382227, 5.398544E-05, -0.01126848, 0.009397243, -10.74059, 0, 0, 29.54367, 1, 1, 1000, 1000
 79054199, 1, 0.008642513, 0.009132739, 1.755271E-05, -0.01025841, 0.01015357, -10.74066, 0, 0, 29.54367, 1, 1, 760, 800
 79094183, 0, 0.01255624, 0.01211948, 0.0001443099, -0.01084136, 0.008905152, -10.69059, 0, 0, 29.54573, 1, 1, 1000, 1000
 79094183, 1, 0.01260427, 0.01206943, 9.920754E-05, -0.01051668, 0.01049452, -10.68889, 0, 0, 29.54573, 1, 1, 760, 800
 79134167, 0, 0.008176057, 0.007888729, 0.0001828987, -0.0112902, 0.01001707, -10.63817, 0, 0, 29.54779, 1, 1, 1000, 1000
 79134167, 1, 0.008173264, 0.00785224, 0.0001165972, -0.01202138, 0.009721445, -10.63603, 0, 0, 29.54779, 1, 1, 760, 800
 79174151, 0, 0.005365022, 0.005820509, 0.0002611541, -0.0111003, 0.00878581, -10.59228, 0, 0, 29.54985, 1, 1, 1000, 1000
 79174151, 1, 0.005271946, 0.005954799, -4.209899E-06, -0.01210993, 0.007253029, -10.59126, 0, 0, 29.54985, 1, 1, 760, 800
 79214135, 0, 0.003957702, 0.002413108, 0.0003333734, -0.01135592, 0.009000491, -10.56565, 0, 0, 29.55186, 1, 1, 1000, 1000
 79214135, 1, 0.003712015, 0.002373008, 0.0003317397, -0.009150261, 0.006227802, -10.56576, 0, 0, 29.55191, 1, 1, 760, 800
 79254119, 0, 0.008753989, 0.008482054, 0.0003585535, -0.01158891, 0.009053542, -10.55038, 0, 0, 29.55391, 1, 1, 1000, 1000
 79254119, 1, 0.008639413, 0.008394501, 0.0003552976, -0.01042618, 0.007681835, -10.55001, 0, 0, 29.55397, 1, 1, 760, 800
 79294103, 0, 0.008369132, 0.008000808, 0.0003193366, -0.01088961, 0.008717978, -10.52137, 0, 0, 29.55597, 1, 1, 1000, 1000
 79294103, 1, 0.008533189, 0.008245625, 0.0003930032, -0.01233663, 0.007631011, -10.51998, 0, 0, 29.55603, 1, 1, 760, 800
 79334087, 0, 0.006080757, 0.005082573, 0.0004285055, -0.01054101, 0.009194599, -10.52946, 0, 0, 29.55803, 1, 1, 1000, 1000
 79334087, 1, 0.006098147, 0.005258054, 0.000332073, -0.009708446, 0.008966827, -10.5309, 0, 0, 29.55808, 1, 1, 760, 800
 79374071, 0, 0.005280311, 0.004360853, 0.0004647036, -0.01032146, 0.009459351, -10.5074, 0, 0, 29.56009, 1, 1, 1000, 1000
 79374071, 1, 0.005193169, 0.004373776, 0.0004143736, -0.01271615, 0.009314184, -10.50583, 0, 0, 29.56014, 1, 1, 760, 800
 79414055, 0, 0.004285463, 0.004197536, 0.0004283654, -0.01120948, 0.00886843, -10.42645, 0, 0, 29.56215, 1, 1, 1000, 1000
 79414055, 1, 0.004455658, 0.004109768, 0.000400674, -0.01179597, 0.008576432, -10.42706, 0, 0, 29.5622, 1, 1, 760, 800
 79454039, 0, 0.003296965, 0.003515267, 0.0006427277, -0.01089571, 0.007102053, -10.32187, 0, 0, 29.56421, 1, 1, 1000, 1000
 79454039, 1, 0.003246974, 0.003595155, 0.0006059224, -0.008599275, 0.01031024, -10.3218, 0, 0, 29.56426, 1, 1, 760, 800
 79494023, 0, 0.005409142, 0.006526233, 0.0006774513, -0.01024476, 0.007961663, -10.22251, 0, 0, 29.56627, 1, 1, 1000, 1000
 79494023, 1, 0.005305643, 0.006547954, 0.000737391, -0.009626867, 0.007913041, -10.22422, 0, 0, 29.56632, 1, 1, 760, 800
 79534007, 0, 0.00487195, 0.005739516, 0.0007765023, -0.01010788, 0.007786974, -10.13306, 0, 0, 29.56833, 1, 1, 1000, 1000
 79534007, 1, 0.004801359, 0.005705733, 0.0006300919, -0.01138024, 0.008141422, -10.1327, 0, 0, 29.56837, 1, 1, 760, 800
 79573991, 0, 0.004449173, 0.004035866, 0.0008543671, -0.008785097, 0.00632409, -10.05011, 0, 0, 29.57038, 1, 1, 1000, 1000
 79573991, 1, 0.004459941, 0.003860544, 0.0006721613, -0.00755722, 0.008005058, -10.04997, 0, 0, 29.57038, 1, 1, 760, 800
 79613975, 0, 0.001688954, 0.002921452, 0.0009222704, -0.008623079, 0.006807982, -9.972395, 0, 0, 29.57244, 1, 1, 1000, 1000
 79613975, 1, 0.001530253, 0.002928601, 0.0009962588, -0.008424532, 0.007651378, -9.970419, 0, 0, 29.57244, 1, 1, 760, 800
 79653959, 0, 0.003600619, 0.004468442, 0.001020562, -0.008468513, 0.007622863, -9.901218, 0, 0, 29.5745, 1, 1, 1000, 1000
 79653959, 1, 0.003321358, 0.004676244, 0.001188514, -0.007279187, 0.008832539, -9.900463, 0, 0, 29.5745, 1, 1, 760, 800
 79693943, 0, 0.003960553, 0.006309245, 0.001086351, -0.007972904, 0.005511721, -9.841393, 0, 0, 29.57655, 1, 1, 1000, 1000
 79693943, 1, 0.003871676, 0.006487377, 0.001121156, -0.008284074, 0.005310062, -9.840984, 0, 0, 29.57655, 1, 1, 760, 800
 79733927, 0, 0.003995878, 0.007157076, 0.00112651, -0.008140029, 0.006365083, -9.781823, 0, 0, 29.57861, 1, 1, 1000, 1000
 79733927, 1, 0.004029158, 0.007201355, 0.001202703, -0.007326498, 0.006248547, -9.782449, 0, 0, 29.57861, 1, 1, 760, 800
 79773911, 0, 0.0008478753, 0.0034081, 0.001296363, -0.007734261, 0.006512016, -9.737765, 0, 0, 29.58067, 1, 1, 1000, 1000
 79773911, 1, 0.0006764108, 0.00366201, 0.001252905, -0.007183481, 0.005963752, -9.737934, 0, 0, 29.58067, 1, 1, 760, 800
 79813895, 0, -0.001365483, 0.0001238992, 0.00144047, -0.008193017, 0.005321746, -9.689418, 0, 0, 29.58272, 1, 1, 1000, 1000
 79813895, 1, -0.001424979, 0.0002174814, 0.001441086, -0.00695494, 0.005939691, -9.690921, 0, 0, 29.58272, 1, 1, 760, 800
 79853879, 0, 0.0001724066, 0.001957157, 0.001457084, -0.007678868, 0.006298057, -9.618736, 0, 0, 29.58478, 1, 1, 1000, 1000
 79853879, 1, 0.0001744422, 0.001843218, 0.001510813, -0.009829488, 0.005303437, -9.619755, 0, 0, 29.58478, 1, 1, 760, 800
 79893863, 0, 0.001264235, 0.002478289, 0.00144431, -0.005989507, 0.005228767, -9.537064, 0, 0, 29.58683, 1, 1, 1000, 1000
 79893863, 1, 0.001055612, 0.002473065, 0.001474776, -0.00723209, 0.006624943, -9.535122, 0, 0, 29.58683, 1, 1, 760, 800
 79933847, 0, 0.0002430366, 0.0006083898, 0.001387953, -0.005309135, 0.004121987, -9.464, 0, 0, 29.58889, 1, 1, 1000, 1000
 79933847, 1, 0.0002118693, 0.0006763532, 0.001514267, -0.004097568, 0.004522129, -9.464355, 0, 0, 29.58889, 1, 1, 760, 800
 79973831, 0, -0.0005414741, -0.0002906012, 0.001354723, -0.005827333, 0.003664563, -9.397371, 0, 0, 29.59094, 1, 1, 1000, 1000
 79973831, 1, -0.00049912, -0.0002902718, 0.001253857, -0.003853147, 0.003079348, -9.397613, 0, 0, 29.59089, 1, 1, 760, 800
 80013815, 0, -0.001588445, -0.002254088, 0.001300189, -0.00486971, 0.004007773, -9.338392, 0, 0, 29.59299, 1, 1, 1000, 1000
 80013815, 1, -0.001596611, -0.002329774, 0.001321901, -0.006786291, 0.005506798, -9.339735, 0, 0, 29.59294, 1, 1, 760, 800
 80053799, 0, -0.0005757189, -0.001310095, 0.001356034, -0.004161321, 0.003170474, -9.287267, 0, 0, 29.59505, 1, 1, 1000, 1000
 80053799, 1, -0.0003665294, -0.001325467, 0.001350418, -0.003043937, 0.004081754, -9.28724, 0, 0, 29.595, 1, 1, 760, 800
 80093783, 0, -2.194537E-05, 6.387266E-05, 0.001178892, -0.003954658, 0.003441768, -9.23794, 0, 0, 29.5971, 1, 1, 1000, 1000
 80093783, 1, 5.525484E-05, 0.0001272194, 0.001239117, -0.003856586, 0.002005072, -9.237466, 0, 0, 29.59705, 1, 1, 760, 800
 80133767, 0, 0.002430754, 0.0004356961, 0.001241998, -0.004580511, 0.002140166, -9.20146, 0, 0, 29.59916, 1, 1, 1000, 1000
 80133767, 1, 0.002577722, 0.0003971262, 0.001337641, -0.001499481, 0.001710231, -9.203444, 0, 0, 29.59911, 1, 1, 760, 800
 80173751, 0, 0.001451576, -0.001187989, 0.001138071, -0.004894772, 0.00400392, -9.168056, 0, 0, 29.60121, 1, 1, 1000, 1000
 80173751, 1, 0.001515903, -0.001281503, 0.00119968, -0.004216763, -3.403598E-06, -9.166268, 0, 0, 29.60116, 1, 1, 760, 800
 80213735, 0, -0.003266494, -0.004702018, 0.001070717, -0.002293476, 0.002746308, -9.137498, 0, 0, 29.60326, 1, 1, 1000, 1000
 80213735, 1, -0.003334626, -0.004628621, 0.001049803, -0.001375944, 0.002014159, -9.137608, 0, 0, 29.60321, 1, 1, 760, 800
 80253719, 0, 0.002618043, 0.0009602993, 0.0009490666, -0.002949372, 0.001291433, -9.118504, 0, 0, 29.60532, 1, 1, 1000, 1000
 80253719, 1, 0.002545122, 0.001066825, 0.001202556, -0.003140354, 0.002023133, -9.118038, 0, 0, 29.60526, 1, 1, 760, 800
 80293703, 0, 0.002470961, 0.003666699, 0.000897621, -0.00294515, 0.001226003, -9.097837, 0, 0, 29.60737, 1, 1, 1000, 1000
 80293703, 1, 0.002611145, 0.003771491, 0.0008300648, -0.00195481, 0.002923512, -9.097078, 0, 0, 29.60732, 1, 1, 760, 800
 80333687, 0, 0.002437255, 0.0002437801, 0.0008715143, -0.003255923, 0.0008184227, -9.080496, 0, 0, 29.60942, 1, 1, 1000, 1000
 80333687, 1, 0.002430423, 0.0001709559, 0.0008201841, -0.00387939, 0.001746289, -9.081526, 0, 0, 29.60937, 1, 1, 760, 800
 80373671, 0, -0.0009723888, -0.001608885, 0.000873284, -0.0008595637, 0.0007935211, -9.074711, 0, 0, 29.61147, 1, 1, 1000, 1000
 80373671, 1, -0.001041549, -0.001791071, 0.0007532246, -0.005627722, 0.0009628732, -9.075701, 0, 0, 29.61142, 1, 1, 760, 800
 80413655, 0, -0.002320538, -0.003838174, 0.0007762787, -0.002187151, 0.0005962178, -9.072781, 0, 0, 29.61353, 1, 1, 1000, 1000
 80413655, 1, -0.002393807, -0.003817904, 0.0007799741, -0.001298732, -0.001846529, -9.073895, 0, 0, 29.61347, 1, 1, 760, 800
 80453639, 0, 0.001648032, 0.001020698, 0.0007869688, -0.001329691, 0.002031916, -9.055536, 0, 0, 29.61558, 1, 1, 1000, 1000
 80453639, 1, 0.001763352, 0.001184438, 0.0008595784, -0.002319148, 0.002526361, -9.056039, 0, 0, 29.61552, 1, 1, 760, 800
 80493623, 0, 0.001583409, 0.001123379, 0.0007449206, -0.0003877627, -0.00085137, -9.068306, 0, 0, 29.61763, 1, 1, 1000, 1000
 80493623, 1, 0.001594755, 0.001120228, 0.0007362827, -0.001765328, 0.0008381748, -9.068222, 0, 0, 29.61758, 1, 1, 760, 800
 80533607, 0, 0.002847594, 0.003304259, 0.0007611933, -0.001153663, 0.0003111043, -9.059491, 0, 0, 29.61968, 1, 1, 1000, 1000
 80533607, 1, 0.002818736, 0.00317621, 0.0008180666, 0.0001860032, 0.002034734, -9.058854, 0, 0, 29.61963, 1, 1, 760, 800
 80574424, 0, 0.0005213423, -0.0009390674, 0.0007026962, -0.001493583, 0.0004092731, -9.063616, 0, 0, 29.62178, 1, 1, 1000, 1000
 80574424, 1, 0.0005207778, -0.0009676709, 0.0007172973, 0.0002456456, -0.001001077, -9.064756, 0, 0, 29.62178, 1, 1, 760, 800
 80614408, 0, -0.001067628, -0.0007276675, 0.0006549884, -0.0003286067, 0.0002963201, -9.072682, 0, 0, 29.62383, 1, 1, 1000, 1000
 80614408, 1, -0.001017295, -0.0007184581, 0.0005769221, -0.0001479852, -0.0009410691, -9.072815, 0, 0, 29.62383, 1, 1, 760, 800
 80654392, 0, 0.00128163, 0.001931387, 0.0005944637, 4.069018E-05, -0.001370078, -9.06373, 0, 0, 29.62588, 1, 1, 1000, 1000
 80654392, 1, 0.001411632, 0.00206742, 0.0005238713, 0.001307344, -0.001324793, -9.062482, 0, 0, 29.62588, 1, 1, 760, 800
 80694376, 0, -0.000306036, 0.001216976, 0.0005874211, 0.0002084611, 3.167114E-05, -9.071821, 0, 0, 29.62793, 1, 1, 1000, 1000
 80694376, 1, -0.0003736192, 0.001210266, 0.0005658097, 0.001212352, -0.003236021, -9.070116, 0, 0, 29.62793, 1, 1, 760, 800
 80734360, 0, -0.0002144765, 0.001233485, 0.0006111798, -2.299386E-05, -0.001640811, -9.085032, 0, 0, 29.62998, 1, 1, 1000, 1000
 80734360, 1, -0.0003474202, 0.001437922, 0.0007623007, -0.001215702, -0.0002565246, -9.08551, 0, 0, 29.62998, 1, 1, 760, 800
 80774344, 0, -0.0001889139, 0.001192071, 0.0006179825, 0.0008114603, -0.002085552, -9.098259, 0, 0, 29.63203, 1, 1, 1000, 1000
 80774344, 1, -9.005328E-05, 0.00123823, 0.0006633729, -0.001046376, -0.001789687, -9.097572, 0, 0, 29.63203, 1, 1, 760, 800
 80814328, 0, -0.0001613815, 9.708975E-05, 0.0006004096, 0.001901351, -0.001087977, -9.108499, 0, 0, 29.63408, 1, 1, 1000, 1000
 80814328, 1, -0.0003094974, 6.349248E-05, 0.0007101707, 0.001217427, -0.002058247, -9.106604, 0, 0, 29.63408, 1, 1, 760, 800
 80854312, 0, -0.0001194141, -0.0006853722, 0.0006440897, 0.001042097, -0.001605293, -9.122146, 0, 0, 29.63613, 1, 1, 1000, 1000
 80854312, 1, -0.0001738424, -0.0005210048, 0.0007836337, 0.00395675, 0.0001901295, -9.122568, 0, 0, 29.63613, 1, 1, 760, 800
 80894296, 0, 0.001221199, -0.0002090829, 0.0006153685, 0.001098458, -0.00137044, -9.125193, 0, 0, 29.63818, 1, 1, 1000, 1000
 80894296, 1, 0.001119979, -0.0001272958, 0.0007631578, -0.0008558984, -0.002571686, -9.126369, 0, 0, 29.63818, 1, 1, 760, 800
 80934280, 0, 0.0007399934, -0.001653162, 0.0006424207, 0.002832409, -0.002994352, -9.133413, 0, 0, 29.64022, 1, 1, 1000, 1000
 80934280, 1, 0.0007745168, -0.001531682, 0.0007041739, 0.0007817016, -0.0007777326, -9.134554, 0, 0, 29.64022, 1, 1, 760, 800
 80974264, 0, 0.0005377567, -0.001864467, 0.0006353162, 0.001009313, -0.002481942, -9.142241, 0, 0, 29.64227, 1, 1, 1000, 1000
 80974264, 1, 0.0003021198, -0.001882564, 0.0006289121, 0.002565168, -0.002258554, -9.143614, 0, 0, 29.64227, 1, 1, 760, 800
 81014248, 0, -0.0008127092, -0.003220262, 0.0006883454, 0.001679971, -0.002532571, -9.159092, 0, 0, 29.64432, 1, 1, 1000, 1000
 81014248, 1, -0.0006887584, -0.002991265, 0.0006582954, 0.002449214, -0.002916918, -9.15838, 0, 0, 29.64432, 1, 1, 760, 800
 81054232, 0, 0.00206214, 0.0009315467, 0.0007714917, 0.002515333, -0.00398961, -9.172598, 0, 0, 29.64636, 1, 1, 1000, 1000
 81054232, 1, 0.002340054, 0.00102397, 0.0006644856, 0.001102669, -0.001981579, -9.171871, 0, 0, 29.64636, 1, 1, 760, 800
 81094216, 0, 0.00326436, 0.002861046, 0.0007959031, 0.001716865, -0.004674949, -9.177478, 0, 0, 29.64841, 1, 1, 1000, 1000
 81094216, 1, 0.003217587, 0.00285632, 0.0007671114, 0.001854585, 0.0004057109, -9.178941, 0, 0, 29.64841, 1, 1, 760, 800
 81134200, 0, 0.003161693, 0.002775318, 0.0008937123, 0.002587447, -0.003036631, -9.18999, 0, 0, 29.65046, 1, 1, 1000, 1000
 81134200, 1, 0.003186751, 0.002673729, 0.0007345364, 0.003417004, -0.003628387, -9.187984, 0, 0, 29.65046, 1, 1, 760, 800
 81174184, 0, 0.001380386, 0.0002317789, 0.0008695972, 0.002729734, -0.00405668, -9.199128, 0, 0, 29.6525, 1, 1, 1000, 1000
 81174184, 1, 0.001505786, 0.0002971501, 0.0008623035, 0.00561081, -0.004689909, -9.200513, 0, 0, 29.6525, 1, 1, 760, 800
 81214168, 0, -0.0002600718, -0.001988407, 0.001010398, 0.002981467, -0.004265141, -9.211317, 0, 0, 29.65455, 1, 1, 1000, 1000
 81214168, 1, -0.0003126768, -0.001921275, 0.0009899565, 0.003706002, -0.002386178, -9.212001, 0, 0, 29.65455, 1, 1, 760, 800
 81254152, 0, 0.001975905, -0.0008473506, 0.001052143, 0.003211726, -0.005298274, -9.214858, 0, 0, 29.6566, 1, 1, 1000, 1000
 81254152, 1, 0.001468141, -0.001295822, 0.000917077, 0.005246249, -0.003024192, -9.21597, 0, 0, 29.6566, 1, 1, 760, 800
 81294136, 0, 0.001785061, -0.0007528305, 0.001027197, 0.002978459, -0.003966324, -9.225285, 0, 0, 29.65859, 1, 1, 1000, 1000
 81294136, 1, 0.002128198, -0.0006386255, 0.0009200175, 0.005813259, -0.003821599, -9.225532, 0, 0, 29.65864, 1, 1, 760, 800
 81334120, 0, 0.00107867, -0.000338419, 0.001112563, 0.003209834, -0.004441357, -9.234175, 0, 0, 29.66064, 1, 1, 1000, 1000
 81334120, 1, 0.001027459, -0.0003333525, 0.001064362, 0.006044273, -0.004017935, -9.236017, 0, 0, 29.66069, 1, 1, 760, 800
 81374104, 0, -0.001826346, -0.002433559, 0.001169773, 0.004169081, -0.004638241, -9.242772, 0, 0, 29.66268, 1, 1, 1000, 1000
 81374104, 1, -0.001877866, -0.002583297, 0.001319645, 0.003914014, -0.004823786, -9.243243, 0, 0, 29.66273, 1, 1, 760, 800
 81414088, 0, -0.003157445, -0.002541206, 0.001148988, 0.004047302, -0.005565594, -9.25016, 0, 0, 29.66473, 1, 1, 1000, 1000
 81414088, 1, -0.003108728, -0.002538776, 0.001162247, 0.00101553, -0.003796319, -9.25101, 0, 0, 29.66478, 1, 1, 760, 800
 81454072, 0, -0.0004950911, 0.0008716469, 0.00121585, 0.002588093, -0.005493682, -9.256602, 0, 0, 29.66677, 1, 1, 1000, 1000
 81454072, 1, -0.00054659, 0.0007354309, 0.001179628, -0.0002249649, -0.00541555, -9.255539, 0, 0, 29.66682, 1, 1, 760, 800
 81494056, 0, 0.001887078, 0.002830104, 0.001312771, 0.00446779, -0.004332569, -9.26326, 0, 0, 29.66882, 1, 1, 1000, 1000
 81494056, 1, 0.001713156, 0.002710683, 0.001286414, 0.004518275, -0.004140119, -9.263569, 0, 0, 29.66887, 1, 1, 760, 800
 81534040, 0, 0.002873839, 0.001669678, 0.001282405, 0.004148241, -0.005539295, -9.264067, 0, 0, 29.67086, 1, 1, 1000, 1000
 81534040, 1, 0.002821652, 0.00168539, 0.001300252, 0.001693576, -0.001608938, -9.263287, 0, 0, 29.67091, 1, 1, 760, 800
 81574024, 0, 0.001946705, 0.001763424, 0.00134877, 0.003857803, -0.004712233, -9.270761, 0, 0, 29.6729, 1, 1, 1000, 1000
 81574024, 1, 0.002018547, 0.00195593, 0.001353745, 0.003383848, -0.003783453, -9.27319, 0, 0, 29.67295, 1, 1, 760, 800
 81614008, 0, 0.0007096897, 0.001801441, 0.001401135, 0.005009796, -0.0056677, -9.281557, 0, 0, 29.67495, 1, 1, 1000, 1000
 81614008, 1, 0.0006633052, 0.001962109, 0.001383091, 0.004741778, -0.005036603, -9.278708, 0, 0, 29.675, 1, 1, 760, 800
 81653992, 0, 8.985668E-05, 0.001791968, 0.001363315, 0.003726456, -0.004736318, -9.28609, 0, 0, 29.67699, 1, 1, 1000, 1000
 81653992, 1, 0.000172605, 0.001913953, 0.001313214, 0.0028961, -0.004961091, -9.28745, 0, 0, 29.67699, 1, 1, 760, 800
 81693976, 0, 7.198637E-05, 0.001754783, 0.00131529, 0.002985997, -0.006263699, -9.295898, 0, 0, 29.67903, 1, 1, 1000, 1000
 81693976, 1, 9.243557E-05, 0.00189003, 0.001309968, 0.001710347, -0.00430033, -9.29449, 0, 0, 29.67903, 1, 1, 760, 800
 81733960, 0, -0.00272849, -0.002966748, 0.001450591, 0.004338204, -0.005582769, -9.287742, 0, 0, 29.68108, 1, 1, 1000, 1000
 81733960, 1, -0.002764894, -0.002948958, 0.001279139, 0.003842318, -0.006343642, -9.286813, 0, 0, 29.68108, 1, 1, 760, 800
 81773944, 0, -0.003930958, -0.004189886, 0.001363157, 0.00470583, -0.005375996, -9.28758, 0, 0, 29.68312, 1, 1, 1000, 1000
 81773944, 1, -0.0040072, -0.004350024, 0.00141141, 0.003285748, -0.007265791, -9.286442, 0, 0, 29.68312, 1, 1, 760, 800
 81813928, 0, -0.001608715, -0.003663305, 0.001380489, 0.005143458, -0.005891702, -9.287095, 0, 0, 29.68516, 1, 1, 1000, 1000
 81813928, 1, -0.001496458, -0.003707523, 0.00141968, 0.003022957, -0.005385322, -9.287222, 0, 0, 29.68516, 1, 1, 760, 800
 81853912, 0, -0.001660899, -0.003736396, 0.001385593, 0.005009154, -0.005351262, -9.295886, 0, 0, 29.6872, 1, 1, 1000, 1000
 81853912, 1, -0.00189442, -0.003683429, 0.001406618, 0.005781317, -0.005447466, -9.294068, 0, 0, 29.6872, 1, 1, 760, 800
 81893896, 0, -0.001595883, -0.003647802, 0.001346153, 0.005760113, -0.006352746, -9.302287, 0, 0, 29.68924, 1, 1, 1000, 1000
 81893896, 1, -0.001567592, -0.003566084, 0.001151134, 0.006568842, -0.00557668, -9.302619, 0, 0, 29.68924, 1, 1, 760, 800
 81933880, 0, 7.521094E-05, 0.0002143405, 0.001396688, 0.004120063, -0.006577429, -9.303888, 0, 0, 29.69128, 1, 1, 1000, 1000
 81933880, 1, 4.228023E-05, 0.0002093758, 0.001360601, 0.003681922, -0.00650166, -9.301768, 0, 0, 29.69128, 1, 1, 760, 800
 81973864, 0, -0.001965869, 0.0004772556, 0.001265365, 0.005410316, -0.006306216, -9.297434, 0, 0, 29.69333, 1, 1, 1000, 1000
 81973864, 1, -0.001863757, 0.0004826216, 0.001361215, 0.005525189, -0.006139586, -9.298801, 0, 0, 29.69333, 1, 1, 760, 800
 82013848, 0, -0.003330739, -0.002068528, 0.001255091, 0.004617252, -0.006577313, -9.297608, 0, 0, 29.69537, 1, 1, 1000, 1000
 82013848, 1, -0.00336862, -0.002029394, 0.00113904, 0.005668184, -0.005195357, -9.296281, 0, 0, 29.69537, 1, 1, 760, 800
 82053832, 0, -0.003288806, 0.00033967, 0.001228738, 0.004345289, -0.006054124, -9.299558, 0, 0, 29.69741, 1, 1, 1000, 1000
 82053832, 1, -0.003199285, 0.0004881172, 0.0012905, 0.006735257, -0.00510755, -9.302412, 0, 0, 29.69736, 1, 1, 760, 800
 82093816, 0, -0.002470025, 0.0003487765, 0.001212249, 0.005165254, -0.006410623, -9.305735, 0, 0, 29.69945, 1, 1, 1000, 1000
 82093816, 1, -0.002480365, 0.0003498732, 0.001360727, 0.006255969, -0.006640061, -9.302012, 0, 0, 29.6994, 1, 1, 760, 800
 82133800, 0, 0.0002870458, 0.000440365, 0.001170666, 0.004565778, -0.005652952, -9.307375, 0, 0, 29.70149, 1, 1, 1000, 1000
 82133800, 1, 0.0001286312, 0.0005252918, 0.001141245, 0.005748673, -0.007385431, -9.30813, 0, 0, 29.70144, 1, 1, 760, 800
 82173784, 0, -0.002370784, -0.001658308, 0.001055158, 0.0055284, -0.006038303, -9.288636, 0, 0, 29.70353, 1, 1, 1000, 1000
 82173784, 1, -0.002319667, -0.001443533, 0.00118183, 0.00587396, -0.006231837, -9.289709, 0, 0, 29.70348, 1, 1, 760, 800
 82213768, 0, -0.002152314, -0.00150526, 0.001073134, 0.004872112, -0.006502233, -9.296874, 0, 0, 29.70557, 1, 1, 1000, 1000
 82213768, 1, -0.002255634, -0.001325761, 0.000945052, 0.002567173, -0.004783517, -9.298977, 0, 0, 29.70552, 1, 1, 760, 800
 82253752, 0, -0.002095556, -0.001497997, 0.001115671, 0.004355352, -0.006848802, -9.304378, 0, 0, 29.70761, 1, 1, 1000, 1000
 82253752, 1, -0.002136114, -0.001433256, 0.001032296, 0.00338451, -0.005755763, -9.304079, 0, 0, 29.70755, 1, 1, 760, 800
 82293736, 0, 0.0009942576, 0.0006253339, 0.00103175, 0.004816008, -0.006872197, -9.307103, 0, 0, 29.70964, 1, 1, 1000, 1000
 82293736, 1, 0.0007883189, 0.0006009453, 0.001264108, 0.003689832, -0.007202234, -9.304399, 0, 0, 29.70959, 1, 1, 760, 800
 82333720, 0, 0.001283543, 0.003054349, 0.001043311, 0.004080361, -0.005124233, -9.294405, 0, 0, 29.71168, 1, 1, 1000, 1000
 82333720, 1, 0.00130494, 0.002953935, 0.0009116485, 0.001744239, -0.006420899, -9.296159, 0, 0, 29.71163, 1, 1, 760, 800
 82373704, 0, 0.001786303, -0.0006696049, 0.0008567395, 0.004759219, -0.006284237, -9.293842, 0, 0, 29.71372, 1, 1, 1000, 1000
 82373704, 1, 0.00164267, -0.0007353016, 0.0009392796, 0.005738641, -0.005710184, -9.293377, 0, 0, 29.71367, 1, 1, 760, 800
 82413688, 0, 0.001706945, -0.0004505831, 0.0008737835, 0.003581601, -0.005934483, -9.299767, 0, 0, 29.71576, 1, 1, 1000, 1000
 82413688, 1, 0.001743609, -0.0004314563, 0.0007140667, 0.005957749, -0.006401415, -9.30095, 0, 0, 29.71571, 1, 1, 760, 800
 82453672, 0, 0.001410226, -0.0004251684, 0.0009036032, 0.004979843, -0.006231956, -9.303928, 0, 0, 29.7178, 1, 1, 1000, 1000
 82453672, 1, 0.001389297, -0.0003417969, 0.0008443625, 0.004137523, -0.008196782, -9.306041, 0, 0, 29.71775, 1, 1, 760, 800
 82493656, 0, 0.002336668, -0.00106209, 0.0007735227, 0.004880679, -0.00515111, -9.288739, 0, 0, 29.71984, 1, 1, 1000, 1000
 82493656, 1, 0.002286923, -0.001010412, 0.0007485637, 0.005775103, -0.004468478, -9.290186, 0, 0, 29.71978, 1, 1, 760, 800
 82533640, 0, -0.0002570826, 0.001596888, 0.0008466225, 0.005821153, -0.006262653, -9.288509, 0, 0, 29.72187, 1, 1, 1000, 1000
 82533640, 1, -0.0003877904, 0.001610501, 0.0008456013, 0.004332115, -0.005902083, -9.286813, 0, 0, 29.72182, 1, 1, 760, 800
 82573624, 0, -0.0001670794, 0.001475993, 0.0007308646, 0.004903207, -0.006183445, -9.29652, 0, 0, 29.72391, 1, 1, 1000, 1000
 82573624, 1, -0.000375296, 0.001315706, 0.0007884419, 0.005412942, -0.005562835, -9.295959, 0, 0, 29.72386, 1, 1, 760, 800
 82613608, 0, -0.002882824, -0.001562203, 0.0007476681, 0.003514814, -0.005181512, -9.290918, 0, 0, 29.72594, 1, 1, 1000, 1000
 82613608, 1, -0.002864377, -0.001334968, 0.0007220467, 0.005074619, -0.005850116, -9.290416, 0, 0, 29.72589, 1, 1, 760, 800
 82654425, 0, -0.001369192, -0.001042505, 0.0007379545, 0.005346129, -0.006852326, -9.287746, 0, 0, 29.72803, 1, 1, 1000, 1000
 82654425, 1, -0.001441854, -0.0007199563, 0.000665663, 0.004773852, -0.007232498, -9.289227, 0, 0, 29.72803, 1, 1, 760, 800
 82694409, 0, -0.00190847, -0.001001613, 0.000607402, 0.005064481, -0.006095409, -9.284592, 0, 0, 29.73007, 1, 1, 1000, 1000
 82694409, 1, -0.001953313, -0.0009226123, 0.0006027567, 0.002287834, -0.005339589, -9.282985, 0, 0, 29.73007, 1, 1, 760, 800
 82734393, 0, -0.001889663, -0.0009829176, 0.0007135983, 0.003828796, -0.006766576, -9.29221, 0, 0, 29.73211, 1, 1, 1000, 1000
 82734393, 1, -0.001865637, -0.001139327, 0.0007160134, 0.005208627, -0.007559965, -9.291823, 0, 0, 29.73211, 1, 1, 760, 800
 82774377, 0, -0.0001159785, -0.003432907, 0.0005933119, 0.003868867, -0.006455913, -9.274736, 0, 0, 29.73414, 1, 1, 1000, 1000
 82774377, 1, -0.0001677035, -0.003522703, 0.000722576, 0.005809346, -0.005108573, -9.274343, 0, 0, 29.73414, 1, 1, 760, 800
 82814361, 0, 4.269314E-05, -0.004494492, 0.0005293304, 0.003166799, -0.005782582, -9.273716, 0, 0, 29.73618, 1, 1, 1000, 1000
 82814361, 1, -5.660844E-05, -0.004374128, 0.0004708828, 0.003863322, -0.004738456, -9.277048, 0, 0, 29.73618, 1, 1, 760, 800
 82854345, 0, 4.569721E-05, -0.00458746, 0.0004670545, 0.005141438, -0.005798614, -9.27995, 0, 0, 29.73821, 1, 1, 1000, 1000
 82854345, 1, 1.21504E-05, -0.00462109, 0.0005019414, 0.005448012, -0.008585033, -9.280305, 0, 0, 29.73821, 1, 1, 760, 800
 82894329, 0, 7.476265E-05, -0.004203908, 0.0004328892, 0.004267824, -0.005345772, -9.284252, 0, 0, 29.74025, 1, 1, 1000, 1000
 82894329, 1, 8.073252E-06, -0.004290279, 0.0005554568, 0.004399308, -0.007417029, -9.284577, 0, 0, 29.74025, 1, 1, 760, 800
 82934313, 0, 0.00190538, -0.0009860775, 0.0005249841, 0.003948773, -0.005375351, -9.276608, 0, 0, 29.74228, 1, 1, 1000, 1000
 82934313, 1, 0.002000228, -0.001108123, 0.0006158919, 0.003626293, -0.00545208, -9.275529, 0, 0, 29.74228, 1, 1, 760, 800
 82974297, 0, -0.00113201, 0.001380423, 0.0005535287, 0.00478561, -0.005498862, -9.26848, 0, 0, 29.74431, 1, 1, 1000, 1000
 82974297, 1, -0.00104705, 0.001368894, 0.0006116374, 0.00371911, -0.002303193, -9.267058, 0, 0, 29.74431, 1, 1, 760, 800
 83014281, 0, -0.0007995459, 0.001172466, 0.0005463766, 0.003611671, -0.003353716, -9.273348, 0, 0, 29.74635, 1, 1, 1000, 1000
 83014281, 1, -0.0008181912, 0.001392365, 0.0005786261, 0.003365761, -0.006974215, -9.274209, 0, 0, 29.74635, 1, 1, 760, 800
 83054265, 0, -0.0007912721, 0.001179794, 0.0004931097, 0.0022338, -0.005475085, -9.280742, 0, 0, 29.74838, 1, 1, 1000, 1000
 83054265, 1, -0.0008485207, 0.001333893, 0.0005388723, 0.002732415, -0.002324362, -9.279503, 0, 0, 29.74838, 1, 1, 760, 800
 83094249, 0, -0.001226038, 0.00218731, 0.0005224423, 0.003242712, -0.004688318, -9.257277, 0, 0, 29.75042, 1, 1, 1000, 1000
 83094249, 1, -0.001506411, 0.002301915, 0.0005219316, 0.002196174, -0.006069304, -9.257867, 0, 0, 29.75042, 1, 1, 760, 800
 83134233, 0, 0.001264947, 0.0004569203, 0.0006073577, 0.003626232, -0.005457128, -9.262584, 0, 0, 29.75245, 1, 1, 1000, 1000
 83134233, 1, 0.001161887, 0.0004557387, 0.0006218712, 0.003737306, -0.005281509, -9.262403, 0, 0, 29.75245, 1, 1, 760, 800
 83174217, 0, 0.001090817, 0.0002281102, 0.0005754734, 0.001711964, -0.003254175, -9.267984, 0, 0, 29.75448, 1, 1, 1000, 1000
 83174217, 1, 0.001053095, 0.0001833427, 0.0004434464, 0.003301523, -0.005048388, -9.26825, 0, 0, 29.75448, 1, 1, 760, 800
 83214201, 0, 0.001031574, -0.0008949113, 0.0005934639, 0.001874004, -0.00542352, -9.26954, 0, 0, 29.75651, 1, 1, 1000, 1000
 83214201, 1, 0.0008849516, -0.0009632249, 0.0004117576, 0.002351652, -0.005327306, -9.26753, 0, 0, 29.75651, 1, 1, 760, 800
 83254185, 0, 0.002758916, 0.001437056, 0.0006201154, 0.003188534, -0.003089221, -9.250002, 0, 0, 29.75855, 1, 1, 1000, 1000
 83254185, 1, 0.002673213, 0.00155631, 0.0007197345, 0.002711995, -0.004138739, -9.252693, 0, 0, 29.75855, 1, 1, 760, 800
 83294169, 0, 0.002037881, 0.001177827, 0.0006017867, 0.00321913, -0.003836622, -9.255396, 0, 0, 29.76058, 1, 1, 1000, 1000
 83294169, 1, 0.001978159, 0.001054087, 0.0005886136, 0.003282102, -0.004145408, -9.255021, 0, 0, 29.76058, 1, 1, 760, 800
 83334153, 0, 0.002023432, 0.001236677, 0.0006457759, 0.002605298, -0.00401704, -9.262149, 0, 0, 29.76261, 1, 1, 1000, 1000
 83334153, 1, 0.002028713, 0.00134082, 0.000584958, 0.002829229, -0.003905255, -9.261096, 0, 0, 29.76261, 1, 1, 760, 800
 83374137, 0, -0.001116098, -0.003032305, 0.0006176905, 0.002992653, -0.003951055, -9.248677, 0, 0, 29.76464, 1, 1, 1000, 1000
 83374137, 1, -0.001012406, -0.002894858, 0.0008307609, 0.005961063, -0.004953722, -9.246861, 0, 0, 29.76464, 1, 1, 760, 800
 83414121, 0, 0.001160125, 0.000420013, 0.0005417162, 0.0007067025, -0.003651635, -9.242638, 0, 0, 29.76662, 1, 1, 1000, 1000
 83414121, 1, 0.00114617, 0.0005745713, 0.0006389563, 0.002770487, -0.003106869, -9.241426, 0, 0, 29.76667, 1, 1, 760, 800
 83454105, 0, 0.001126033, 0.0002847266, 0.0005354619, 0.002686954, -0.003168652, -9.248887, 0, 0, 29.76865, 1, 1, 1000, 1000
 83454105, 1, 0.0008782159, 0.0004174395, 0.0007245659, 0.0010853, -0.005173265, -9.249716, 0, 0, 29.7687, 1, 1, 760, 800
 83494089, 0, -0.0001902529, 0.0002547481, 0.0005112108, 0.002019621, -0.003926394, -9.24168, 0, 0, 29.77068, 1, 1, 1000, 1000
 83494089, 1, -0.0002354794, 0.000460539, 0.0005090296, 0.003638823, -0.003978812, -9.242911, 0, 0, 29.77073, 1, 1, 760, 800
 83534073, 0, 0.001274395, 0.0003153234, 0.0006619903, 0.001731182, -0.003076379, -9.228624, 0, 0, 29.77271, 1, 1, 1000, 1000
 83534073, 1, 0.001306401, 0.0002329175, 0.0007640558, 0.00276552, -0.004713429, -9.227106, 0, 0, 29.77277, 1, 1, 760, 800
 83574057, 0, 0.001159258, 0.0003402912, 0.0007001157, 0.00196183, -0.004012738, -9.236668, 0, 0, 29.77474, 1, 1, 1000, 1000
 83574057, 1, 0.001209883, 0.0004938114, 0.0004575513, 0.003121631, -0.005710888, -9.23481, 0, 0, 29.7748, 1, 1, 760, 800
 83614041, 0, -0.001620818, -0.001033481, 0.0005929807, 0.002265685, -0.003667658, -9.227423, 0, 0, 29.77678, 1, 1, 1000, 1000
 83614041, 1, -0.001647132, -0.00108852, 0.0007621184, 0.001019072, -0.003040482, -9.227027, 0, 0, 29.77682, 1, 1, 760, 800
 83654025, 0, 0.002268679, 0.001424652, 0.0006253513, 0.000722444, -0.003256597, -9.214737, 0, 0, 29.7788, 1, 1, 1000, 1000
 83654025, 1, 0.002399842, 0.001501741, 0.0006142858, 0.001446815, -0.00523843, -9.214108, 0, 0, 29.77885, 1, 1, 760, 800
 83694009, 0, 0.002078069, 0.001295647, 0.0006540722, 0.001194501, -0.002841829, -9.222805, 0, 0, 29.78083, 1, 1, 1000, 1000
 83694009, 1, 0.002130534, 0.001293806, 0.0005917363, 0.00144493, -0.003552358, -9.220625, 0, 0, 29.78088, 1, 1, 760, 800
 83733993, 0, -0.0009863009, 0.001772549, 0.000665255, 0.001162226, -0.003164207, -9.198693, 0, 0, 29.78286, 1, 1, 1000, 1000
 83733993, 1, -0.001092118, 0.001803358, 0.0007163712, 0.0008483434, -0.004157181, -9.20223, 0, 0, 29.78286, 1, 1, 760, 800
 83773977, 0, -0.0006985131, 0.003159738, 0.0005582607, 0.0008992589, -0.003547934, -9.202822, 0, 0, 29.78489, 1, 1, 1000, 1000
 83773977, 1, -0.0007668387, 0.003344123, 0.0004180408, 0.002776346, -0.003192434, -9.202347, 0, 0, 29.78489, 1, 1, 760, 800
 83813961, 0, 0.002046468, 0.0007338632, 0.0006551905, -0.0004366235, -0.002838694, -9.186047, 0, 0, 29.78692, 1, 1, 1000, 1000
 83813961, 1, 0.001785164, 0.0008256793, 0.0007154223, -0.0004399814, -0.00358205, -9.185503, 0, 0, 29.78692, 1, 1, 760, 800
 83853945, 0, 0.0001427722, 0.002022853, 0.0006343474, -0.0003366145, -0.003763537, -9.181192, 0, 0, 29.78895, 1, 1, 1000, 1000
 83853945, 1, 0.0002291483, 0.001966437, 0.0004572716, 0.001061529, -0.003634545, -9.184164, 0, 0, 29.78895, 1, 1, 760, 800
 83893929, 0, 0.00121631, 0.00307369, 0.0005399546, 5.282446E-05, -0.00192915, -9.157074, 0, 0, 29.79098, 1, 1, 1000, 1000
 83893929, 1, 0.001259516, 0.003187, 0.0005242603, -0.002613428, -0.005696001, -9.159059, 0, 0, 29.79098, 1, 1, 760, 800
 83933913, 0, -0.0005304175, 0.00129845, 0.0006371351, 0.0005389679, -0.002577473, -9.133641, 0, 0, 29.793, 1, 1, 1000, 1000
 83933913, 1, -0.0006337114, 0.001218498, 0.0005363466, -0.001954469, -0.001227468, -9.133288, 0, 0, 29.793, 1, 1, 760, 800
 83973897, 0, 0.0005465187, -0.001251752, 0.000603291, 0.0003347229, -0.002679526, -9.117351, 0, 0, 29.79503, 1, 1, 1000, 1000
 83973897, 1, 0.0006617577, -0.001355712, 0.0007292664, -0.0002591576, -0.001472971, -9.119279, 0, 0, 29.79503, 1, 1, 760, 800
 84013881, 0, 0.00124355, -0.002525269, 0.000654013, -0.0003533977, -0.002177012, -9.112892, 0, 0, 29.79706, 1, 1, 1000, 1000
 84013881, 1, 0.001289889, -0.002398795, 0.0006189182, -0.001695357, -0.001005076, -9.112866, 0, 0, 29.79706, 1, 1, 760, 800
 84053865, 0, 0.002114217, 0.004075428, 0.0007842946, -0.0002460898, -0.002280029, -9.103681, 0, 0, 29.79909, 1, 1, 1000, 1000
 84053865, 1, 0.002059918, 0.003820095, 0.000771336, 0.001283347, -0.002571761, -9.102283, 0, 0, 29.79909, 1, 1, 760, 800
 84093849, 0, 0.003793556, 0.006751853, 0.0007256187, -0.0003316472, -0.002764774, -9.11213, 0, 0, 29.80111, 1, 1, 1000, 1000
 84093849, 1, 0.003782029, 0.006839116, 0.0005898252, -0.001062335, -0.002719248, -9.111412, 0, 0, 29.80111, 1, 1, 760, 800
 84133833, 0, 0.003516049, 0.006606787, 0.0006328492, -0.00183496, -0.002194814, -9.13176, 0, 0, 29.80314, 1, 1, 1000, 1000
 84133833, 1, 0.003487946, 0.00676889, 0.0006119228, 0.001137323, -0.002778073, -9.133105, 0, 0, 29.80314, 1, 1, 760, 800
 84173817, 0, 0.003901274, 0.006590141, 0.0006198307, -0.0006228894, -0.0017978, -9.143406, 0, 0, 29.80516, 1, 1, 1000, 1000
 84173817, 1, 0.003968106, 0.006399998, 0.0006758237, -0.002448731, 0.0002719001, -9.146648, 0, 0, 29.80511, 1, 1, 760, 800
 84213801, 0, 1.247999E-05, 0.002884509, 0.0006637821, -0.0008438338, -0.0001601392, -9.18089, 0, 0, 29.80719, 1, 1, 1000, 1000
 84213801, 1, 0.0001010375, 0.002829934, 0.000591534, -0.0007412146, -0.002240224, -9.178135, 0, 0, 29.80714, 1, 1, 760, 800
 84253785, 0, -0.0006254989, 0.002469253, 0.0006478358, -0.0006187853, -0.002899616, -9.211143, 0, 0, 29.80922, 1, 1, 1000, 1000
 84253785, 1, -0.0004957505, 0.002456502, 0.000524702, -0.002521354, -4.023165E-05, -9.211182, 0, 0, 29.80917, 1, 1, 760, 800
 84293769, 0, 0.003706723, 0.003204262, 0.0007568258, -0.001198826, -0.001370408, -9.254286, 0, 0, 29.81124, 1, 1, 1000, 1000
 84293769, 1, 0.003682192, 0.003283066, 0.0007933206, -0.002349635, -0.0007675892, -9.254532, 0, 0, 29.81119, 1, 1, 760, 800
 84333753, 0, 0.001209259, 0.005901846, 0.0006987219, -0.001195473, -0.001450028, -9.294308, 0, 0, 29.81327, 1, 1, 1000, 1000
 84333753, 1, 0.001112404, 0.005758516, 0.0008434555, 0.0005795509, -0.001829593, -9.295905, 0, 0, 29.81322, 1, 1, 760, 800
 84373737, 0, 0.00345532, 6.454471E-05, 0.0007050131, -0.00157693, -0.001762934, -9.336166, 0, 0, 29.81529, 1, 1, 1000, 1000
 84373737, 1, 0.003580849, 7.379113E-05, 0.000748516, -0.002346358, 0.0004645543, -9.337389, 0, 0, 29.81524, 1, 1, 760, 800
 84413721, 0, 0.0004086194, 0.00212499, 0.0007783272, -0.00219156, -0.001121305, -9.381849, 0, 0, 29.81731, 1, 1, 1000, 1000
 84413721, 1, 0.000375851, 0.002257123, 0.0007734105, -0.001479645, 0.0004158794, -9.383953, 0, 0, 29.81726, 1, 1, 760, 800
 84453705, 0, 0.0004077328, 0.002581103, 0.0008382584, -0.0004899145, -0.001007344, -9.425578, 0, 0, 29.81934, 1, 1, 1000, 1000
 84453705, 1, 0.0003393673, 0.002785701, 0.0007827829, -0.001008236, -0.001679277, -9.42748, 0, 0, 29.81929, 1, 1, 760, 800
 84493689, 0, 0.003056715, 0.0005413449, 0.0007271072, -0.001524461, -0.0004300535, -9.478117, 0, 0, 29.82136, 1, 1, 1000, 1000
 84493689, 1, 0.00316853, 0.0005759863, 0.0006881304, -0.001149162, -0.002155352, -9.478885, 0, 0, 29.82131, 1, 1, 760, 800
 84533673, 0, 0.00229236, 0.00380214, 0.0005619628, -0.002590026, -0.001429367, -9.521198, 0, 0, 29.82339, 1, 1, 1000, 1000
 84533673, 1, 0.002275026, 0.004069017, 0.0006186864, -0.0006106263, -0.0002602008, -9.522899, 0, 0, 29.82334, 1, 1, 760, 800
 84573657, 0, -0.0002348102, 0.001821031, 0.0006612169, -0.002901714, -0.001492891, -9.569675, 0, 0, 29.82541, 1, 1, 1000, 1000
 84573657, 1, -0.0003009072, 0.001920305, 0.0007677196, -0.002986906, 0.001453831, -9.570717, 0, 0, 29.82536, 1, 1, 760, 800
 84613641, 0, 0.002939159, -0.001446088, 0.000648599, -0.001945283, 0.0001238324, -9.613808, 0, 0, 29.82743, 1, 1, 1000, 1000
 84613641, 1, 0.002976566, -0.001352086, 0.0006033513, -0.001102111, -0.001318914, -9.612328, 0, 0, 29.82738, 1, 1, 760, 800
 84653625, 0, -0.00255314, 0.003486506, 0.0007481642, -0.00101623, -0.0001861751, -9.653499, 0, 0, 29.82946, 1, 1, 1000, 1000
 84653625, 1, -0.002532016, 0.003378131, 0.0008229857, -0.0005338425, -0.001176717, -9.656545, 0, 0, 29.82941, 1, 1, 760, 800
 84693609, 0, 0.004040781, 0.0001110362, 0.0007432867, -0.001093024, -0.000136955, -9.689645, 0, 0, 29.83148, 1, 1, 1000, 1000
 84693609, 1, 0.003902387, 0.0003051964, 0.0006357036, -0.001231306, -0.001323306, -9.690781, 0, 0, 29.83143, 1, 1, 760, 800
 84734426, 0, 0.00180328, 0.003524597, 0.000796002, -0.002107328, -0.0008276896, -9.730163, 0, 0, 29.83355, 1, 1, 1000, 1000
 84734426, 1, 0.001796053, 0.003538945, 0.0009409234, -0.002962762, 0.001114752, -9.731816, 0, 0, 29.83355, 1, 1, 760, 800
 84774410, 0, 0.0004440778, -0.0002282097, 0.0006633712, -0.002374414, 1.149203E-05, -9.761239, 0, 0, 29.83558, 1, 1, 1000, 1000
 84774410, 1, 0.0003718638, -0.0004549595, 0.0007533678, -0.001578961, -0.0005930445, -9.759839, 0, 0, 29.83558, 1, 1, 760, 800
 84814394, 0, 0.002855271, 0.002494892, 0.0006645336, -0.001383377, -0.0009594426, -9.795533, 0, 0, 29.8376, 1, 1, 1000, 1000
 84814394, 1, 0.002680161, 0.002493807, 0.0005492277, 0.0003082283, 0.001402862, -9.79459, 0, 0, 29.8376, 1, 1, 760, 800
 84854378, 0, -0.001543381, 0.001093696, 0.0006787622, -0.001479916, -0.0001246238, -9.825371, 0, 0, 29.83962, 1, 1, 1000, 1000
 84854378, 1, -0.001712134, 0.001117455, 0.0006634421, -0.0006955817, 0.0001599943, -9.826512, 0, 0, 29.83962, 1, 1, 760, 800
 84894362, 0, 0.002330196, 0.002180199, 0.0007571438, -0.001712837, -0.001086188, -9.852905, 0, 0, 29.84164, 1, 1, 1000, 1000
 84894362, 1, 0.002411401, 0.002159318, 0.0005928777, -0.0036437, 0.0007595576, -9.849463, 0, 0, 29.84164, 1, 1, 760, 800
 84934346, 0, 0.002929182, 0.001403102, 0.0007741274, -0.001899758, -0.0002823072, -9.876429, 0, 0, 29.84366, 1, 1, 1000, 1000
 84934346, 1, 0.002875072, 0.001343742, 0.0007687798, -0.00165482, -0.001644845, -9.875814, 0, 0, 29.84366, 1, 1, 760, 800
 84974330, 0, 0.00117464, 0.001182149, 0.0007740626, -0.001222431, 0.001120966, -9.888245, 0, 0, 29.84568, 1, 1, 1000, 1000
 84974330, 1, 0.00111004, 0.001267102, 0.0005548971, -0.003521082, 0.0003796532, -9.888647, 0, 0, 29.84568, 1, 1, 760, 800
 85014314, 0, -0.0008144139, -0.0008418218, 0.0007687105, -0.001906439, 0.0007441089, -9.920732, 0, 0, 29.8477, 1, 1, 1000, 1000
 85014314, 1, -0.001002593, -0.000554853, 0.0006979724, -0.001020237, -0.0002078242, -9.922377, 0, 0, 29.8477, 1, 1, 760, 800
 85054298, 0, -0.0007612513, -0.0008000371, 0.0007242281, -0.001747315, 0.0009888492, -9.920378, 0, 0, 29.84972, 1, 1, 1000, 1000
 85054298, 1, -0.0007186513, -0.0008146456, 0.0009404399, -0.001031593, -0.000272703, -9.919971, 0, 0, 29.84972, 1, 1, 760, 800
 85094282, 0, 0.002553153, 0.001640074, 0.0007758781, -0.002344801, 0.0006656351, -9.961617, 0, 0, 29.85174, 1, 1, 1000, 1000
 85094282, 1, 0.002642513, 0.001656849, 0.0008295882, -0.002371423, 0.0003874457, -9.962857, 0, 0, 29.85174, 1, 1, 760, 800
 85134266, 0, 0.003343695, 0.002282591, 0.0007114229, -0.001882949, -0.0001379335, -10.05972, 0, 0, 29.85376, 1, 1, 1000, 1000
 85134266, 1, 0.003341841, 0.002359819, 0.0007455131, -0.002046308, 0.002901837, -10.05758, 0, 0, 29.85376, 1, 1, 760, 800
 85174250, 0, 0.001067325, 0.0002884755, 0.0007350811, -0.001761621, 0.0003492414, -10.19745, 0, 0, 29.85578, 1, 1, 1000, 1000
 85174250, 1, 0.001166818, 0.0004645577, 0.00059435, -0.002386852, 0.0007641361, -10.19716, 0, 0, 29.85578, 1, 1, 760, 800
 85214234, 0, 0.001826364, 0.001223348, 0.000793186, -0.002110538, 0.00113736, -10.35157, 0, 0, 29.8578, 1, 1, 1000, 1000
 85214234, 1, 0.001768893, 0.001389943, 0.0007175228, -0.001982677, 0.0007173504, -10.35023, 0, 0, 29.8578, 1, 1, 760, 800
 85254218, 0, 0.0008795281, 0.001177753, 0.0007124766, -0.002608526, 0.0005544025, -10.51594, 0, 0, 29.85982, 1, 1, 1000, 1000
 85254218, 1, 0.0008185203, 0.001369968, 0.001023724, -0.002427441, 0.003208867, -10.51376, 0, 0, 29.85982, 1, 1, 760, 800
 85294202, 0, 0.003962423, 0.002155136, 0.0007295209, -0.00278891, 0.0003453357, -10.6273, 0, 0, 29.86184, 1, 1, 1000, 1000
 85294202, 1, 0.00401721, 0.002411057, 0.0006205673, -0.001830935, -9.414788E-05, -10.62604, 0, 0, 29.86184, 1, 1, 760, 800
 85334186, 0, 0.002901994, 0.001857975, 0.0006932423, -0.003120824, 0.001727572, -10.68954, 0, 0, 29.86385, 1, 1, 1000, 1000
 85334186, 1, 0.00296697, 0.00174036, 0.0006989616, -0.005069062, -0.001252638, -10.68733, 0, 0, 29.86385, 1, 1, 760, 800
 85374170, 0, 0.002747905, 0.001846028, 0.0007737145, -0.003062637, 0.0002799899, -10.73615, 0, 0, 29.86587, 1, 1, 1000, 1000
 85374170, 1, 0.002759184, 0.00191369, 0.0008957917, -0.000300872, 0.0003501755, -10.73673, 0, 0, 29.86587, 1, 1, 760, 800
 85414154, 0, 0.0001811498, -0.0002690885, 0.0008278301, -0.003275915, 0.001279475, -10.77527, 0, 0, 29.86789, 1, 1, 1000, 1000
 85414154, 1, 0.00018992, -0.0001631002, 0.0007052479, -0.003786126, 0.001329734, -10.77343, 0, 0, 29.86789, 1, 1, 760, 800
 85454138, 0, -0.000455417, -0.0005187279, 0.000860734, -0.002684682, 0.000624524, -10.81265, 0, 0, 29.86991, 1, 1, 1000, 1000
 85454138, 1, -0.0002878926, -0.0003315968, 0.0008243599, -0.00207724, -0.0001668077, -10.81209, 0, 0, 29.86991, 1, 1, 760, 800
 85494122, 0, 0.003732957, 0.002817921, 0.0008562438, -0.0022308, 0.000197277, -10.84309, 0, 0, 29.87188, 1, 1, 1000, 1000
 85494122, 1, 0.003702898, 0.002767402, 0.0008580372, -0.002852689, -0.0004470211, -10.84542, 0, 0, 29.87193, 1, 1, 760, 800
 85534106, 0, -9.230178E-06, -0.001221519, 0.0007916447, -0.003255963, -0.000211314, -10.86536, 0, 0, 29.87389, 1, 1, 1000, 1000
 85534106, 1, 0.0002308531, -0.0009704581, 0.0007718703, -0.005155629, 0.001762712, -10.8639, 0, 0, 29.87394, 1, 1, 760, 800
 85574090, 0, 0.000216176, -0.0007526666, 0.0008755866, -0.003139287, -0.0002843112, -10.89548, 0, 0, 29.87591, 1, 1, 1000, 1000
 85574090, 1, 0.000294248, -0.0007587699, 0.0009003392, -0.0008137724, 0.002377632, -10.89433, 0, 0, 29.87596, 1, 1, 760, 800
 85614074, 0, 0.002996029, 0.003092364, 0.0008598071, -0.003762602, 0.001417005, -10.91601, 0, 0, 29.87793, 1, 1, 1000, 1000
 85614074, 1, 0.003165521, 0.003215287, 0.0007173973, -0.002761966, -0.0003814781, -10.91411, 0, 0, 29.87798, 1, 1, 760, 800
 85654058, 0, 0.001588011, 0.001056998, 0.0007569088, -0.002633485, 0.0003923417, -10.92177, 0, 0, 29.87994, 1, 1, 1000, 1000
 85654058, 1, 0.001611423, 0.001037179, 0.0007103137, -0.003352794, 0.001742995, -10.92379, 0, 0, 29.87999, 1, 1, 760, 800
 85694042, 0, -0.0009445827, -0.0008283601, 0.0007850734, -0.002946842, 0.000938835, -10.92995, 0, 0, 29.88196, 1, 1, 1000, 1000
 85694042, 1, -0.0009518137, -0.0007687269, 0.0005817611, -0.003130865, -0.001158366, -10.92926, 0, 0, 29.88201, 1, 1, 760, 800
 85734026, 0, 0.001941713, 0.003329276, 0.0007099967, -0.003205531, 0.0004243443, -10.94958, 0, 0, 29.88397, 1, 1, 1000, 1000
 85734026, 1, 0.001864396, 0.003329763, 0.0006646152, -0.003960727, 0.004674776, -10.94973, 0, 0, 29.88402, 1, 1, 760, 800
 85774010, 0, 0.001149272, 0.002628252, 0.0006995492, -0.003317938, 0.001975633, -10.94138, 0, 0, 29.88599, 1, 1, 1000, 1000
 85774010, 1, 0.001156171, 0.002454817, 0.0008066719, -0.003657344, -0.0001387504, -10.94118, 0, 0, 29.88604, 1, 1, 760, 800
 85813994, 0, -0.0009340859, 0.003188387, 0.0007174673, -0.003313214, 0.001313905, -10.96004, 0, 0, 29.888, 1, 1, 1000, 1000
 85813994, 1, -0.001050699, 0.003395034, 0.0007898487, -0.0005197725, 0.001445694, -10.96133, 0, 0, 29.888, 1, 1, 760, 800
 85853978, 0, -0.000836538, 0.003244439, 0.0007063242, -0.003719841, 0.0007944158, -10.94671, 0, 0, 29.89002, 1, 1, 1000, 1000
 85853978, 1, -0.0009119621, 0.003346066, 0.000507137, -0.003826508, 0.001246255, -10.94295, 0, 0, 29.89002, 1, 1, 760, 800
 85893962, 0, 0.0005148349, 0.001560088, 0.0006796674, -0.002767766, 0.002065625, -10.95607, 0, 0, 29.89203, 1, 1, 1000, 1000
 85893962, 1, 0.0003456313, 0.001773899, 0.0005960781, -0.003530814, 0.001157675, -10.9561, 0, 0, 29.89203, 1, 1, 760, 800
 85933946, 0, 0.004436255, 0.003229102, 0.0004706593, -0.002957143, 0.00132758, -10.95125, 0, 0, 29.89405, 1, 1, 1000, 1000
 85933946, 1, 0.004457464, 0.003054396, 0.0004804414, -0.004290099, -0.0004802806, -10.9531, 0, 0, 29.89405, 1, 1, 760, 800
 85973930, 0, 0.004133592, 0.002829871, 0.0005211679, -0.002273894, 0.002490143, -10.93885, 0, 0, 29.89606, 1, 1, 1000, 1000
 85973930, 1, 0.004177008, 0.002978695, 0.0004892451, -0.003101252, 0.001963949, -10.94044, 0, 0, 29.89606, 1, 1, 760, 800
 86013914, 0, 0.002720546, 0.0002466562, 0.0004843229, -0.002514642, 0.002743169, -10.94777, 0, 0, 29.89808, 1, 1, 1000, 1000
 86013914, 1, 0.002801784, 0.0003063956, 0.0005660864, -0.005122242, 0.00342327, -10.94579, 0, 0, 29.89808, 1, 1, 760, 800
 86053898, 0, 3.019659E-05, 0.0009998034, 0.0007218444, -0.003701558, 0.001254265, -10.93981, 0, 0, 29.90009, 1, 1, 1000, 1000
 86053898, 1, 0.0001992258, 0.00102305, 0.0008478352, -0.004399993, 0.002930747, -10.9381, 0, 0, 29.90009, 1, 1, 760, 800
 86093882, 0, 0.0001447833, 0.002153452, 0.0006707903, -0.002846074, 0.0007004254, -10.92896, 0, 0, 29.9021, 1, 1, 1000, 1000
 86093882, 1, 0.0003082568, 0.002075914, 0.0008283486, -0.004322496, 0.001363238, -10.92494, 0, 0, 29.9021, 1, 1, 760, 800
 86133866, 0, 0.0001179272, 0.001839201, 0.0007191945, -0.00404658, 0.001802905, -10.91318, 0, 0, 29.90411, 1, 1, 1000, 1000
 86133866, 1, 0.0002047793, 0.001996558, 0.0006761876, -0.003689097, 0.001833361, -10.91534, 0, 0, 29.90411, 1, 1, 760, 800
 86173850, 0, 0.001446669, 0.0002564793, 0.000753183, -0.003941942, 0.001946573, -10.92689, 0, 0, 29.90613, 1, 1, 1000, 1000
 86173850, 1, 0.001550881, 0.0001462361, 0.0006748494, -0.003257234, 0.002047064, -10.92837, 0, 0, 29.90613, 1, 1, 760, 800
 86213834, 0, 0.001184526, -0.002014596, 0.0008315093, -0.003763443, 0.001814682, -10.91762, 0, 0, 29.90814, 1, 1, 1000, 1000
 86213834, 1, 0.001111861, -0.00192008, 0.0008261296, -0.004567972, 0.002108747, -10.91774, 0, 0, 29.90814, 1, 1, 760, 800
 86253818, 0, 0.001189119, -0.001825131, 0.0007717705, -0.002664958, 0.002302656, -10.90294, 0, 0, 29.91015, 1, 1, 1000, 1000
 86253818, 1, 0.001238206, -0.001895263, 0.0006575114, -0.004077841, -0.001871869, -10.90341, 0, 0, 29.9101, 1, 1, 760, 800
 86293802, 0, 0.001174682, -0.001862049, 0.0007911084, -0.002215256, 0.002572172, -10.88773, 0, 0, 29.91216, 1, 1, 1000, 1000
 86293802, 1, 0.001073779, -0.001759336, 0.0005728358, -0.004013127, 0.002387284, -10.88629, 0, 0, 29.91211, 1, 1, 760, 800
 86333786, 0, 0.001151746, -0.000411539, 0.00075807, -0.003855533, 0.002488728, -10.87347, 0, 0, 29.91417, 1, 1, 1000, 1000
 86333786, 1, 0.001216359, -0.0005187165, 0.000647095, -0.002177904, 0.001359214, -10.87408, 0, 0, 29.91412, 1, 1, 760, 800
 86373770, 0, 0.002259567, 0.00119488, 0.0007464832, -0.004282116, 0.002718136, -10.88491, 0, 0, 29.91619, 1, 1, 1000, 1000
 86373770, 1, 0.002340632, 0.001364668, 0.0007422497, -0.005172079, 0.001709502, -10.88626, 0, 0, 29.91613, 1, 1, 760, 800
 86413754, 0, 0.00215012, 0.002320695, 0.0007200849, -0.003906501, 0.003669963, -10.87568, 0, 0, 29.9182, 1, 1, 1000, 1000
 86413754, 1, 0.002126353, 0.002456767, 0.0006426786, -0.006585732, 0.00154262, -10.8759, 0, 0, 29.91815, 1, 1, 760, 800
 86453738, 0, 0.002194631, 0.002333527, 0.0006985881, -0.004211344, 0.002390128, -10.85947, 0, 0, 29.92021, 1, 1, 1000, 1000
 86453738, 1, 0.002299111, 0.002295255, 0.0007220955, -0.007282232, 0.003173765, -10.85982, 0, 0, 29.92016, 1, 1, 760, 800
 86493722, 0, 0.002213097, 0.002295147, 0.000762968, -0.004589567, 0.001880569, -10.84355, 0, 0, 29.92222, 1, 1, 1000, 1000
 86493722, 1, 0.002359718, 0.002275559, 0.0005954785, -0.003732582, 0.0006552784, -10.84565, 0, 0, 29.92217, 1, 1, 760, 800
 86533706, 0, 0.003755866, 0.00388158, 0.000708497, -0.00393534, 0.00235275, -10.85525, 0, 0, 29.92423, 1, 1, 1000, 1000
 86533706, 1, 0.003824013, 0.003853615, 0.0006232224, -0.005859664, 0.0004373299, -10.85638, 0, 0, 29.92418, 1, 1, 760, 800
 86573690, 0, -5.153775E-05, -0.0009583074, 0.0007827221, -0.002539053, 0.002021291, -10.84776, 0, 0, 29.92624, 1, 1, 1000, 1000
 86573690, 1, 0.0001161809, -0.000915763, 0.0008259793, -0.002416037, 0.0009226231, -10.84757, 0, 0, 29.92619, 1, 1, 760, 800
 86613674, 0, 8.421275E-05, -0.0007335835, 0.00077561, -0.004227663, 0.003359815, -10.8312, 0, 0, 29.92825, 1, 1, 1000, 1000
 86613674, 1, 9.024303E-05, -0.0006909378, 0.0008971717, -0.004981788, 0.003874812, -10.83152, 0, 0, 29.9282, 1, 1, 760, 800
 86653658, 0, 0.0001230483, -0.000465883, 0.0007971505, -0.005397071, 0.002635907, -10.81778, 0, 0, 29.93026, 1, 1, 1000, 1000
 86653658, 1, 0.0001394081, -0.0004873043, 0.0007796945, -0.005079298, 0.001090819, -10.81641, 0, 0, 29.93021, 1, 1, 760, 800
 86693642, 0, 0.00239905, 0.002616899, 0.0007604181, -0.005083055, 0.002936439, -10.82752, 0, 0, 29.93227, 1, 1, 1000, 1000
 86693642, 1, 0.002416173, 0.002748808, 0.0007124632, -0.005830838, 0.002959903, -10.82643, 0, 0, 29.93222, 1, 1, 760, 800
 86733626, 0, 0.001137011, 0.004417526, 0.0008840315, -0.004493021, 0.003567713, -10.81814, 0, 0, 29.93427, 1, 1, 1000, 1000
 86733626, 1, 0.001109227, 0.004541264, 0.0008545608, -0.003251898, 0.002688071, -10.82114, 0, 0, 29.93423, 1, 1, 760, 800
 86773610, 0, 0.001190657, 0.004174001, 0.0007983401, -0.003950463, 0.003179349, -10.80316, 0, 0, 29.93628, 1, 1, 1000, 1000
 86773610, 1, 0.001218479, 0.004066017, 0.0008790835, -0.005242561, 0.000648345, -10.80133, 0, 0, 29.93623, 1, 1, 760, 800
 86814427, 0, 0.001483872, 0.004108572, 0.0008187523, -0.003821315, 0.002018214, -10.81568, 0, 0, 29.93834, 1, 1, 1000, 1000
 86814427, 1, 0.001392484, 0.003988707, 0.0007624988, -0.004778773, 0.001210312, -10.8153, 0, 0, 29.93834, 1, 1, 760, 800
 86854411, 0, 0.0007516921, 0.0024285, 0.000831978, -0.00442327, 0.001435146, -10.80408, 0, 0, 29.94035, 1, 1, 1000, 1000
 86854411, 1, 0.0007274976, 0.002326651, 0.0008758096, -0.004992967, 0.003681066, -10.80124, 0, 0, 29.94035, 1, 1, 760, 800
 86894395, 0, 0.0008414802, 0.002455149, 0.0008117964, -0.005665441, 0.001340284, -10.78717, 0, 0, 29.94236, 1, 1, 1000, 1000
 86894395, 1, 0.0006811835, 0.002566797, 0.0009178654, -0.005060375, 0.00347451, -10.78729, 0, 0, 29.94236, 1, 1, 760, 800
 86934379, 0, 0.002535274, -0.0002459411, 0.000874933, -0.006130451, 0.002752952, -10.78964, 0, 0, 29.94437, 1, 1, 1000, 1000
 86934379, 1, 0.002555446, -9.590659E-05, 0.0008764434, -0.0064109, 0.003311112, -10.78982, 0, 0, 29.94437, 1, 1, 760, 800
 86974363, 0, -0.0002730268, 0.002573805, 0.0008828929, -0.004006137, 0.001897697, -10.78912, 0, 0, 29.94637, 1, 1, 1000, 1000
 86974363, 1, -0.0003280072, 0.00262363, 0.0009731005, -0.002738628, 0.0004128727, -10.78848, 0, 0, 29.94637, 1, 1, 760, 800
 87014347, 0, 0.0006003391, 0.002430896, 0.0009413439, -0.004862521, 0.002721675, -10.77628, 0, 0, 29.94838, 1, 1, 1000, 1000
 87014347, 1, 0.0005150379, 0.002249313, 0.0008993048, -0.004472182, 0.002007271, -10.77594, 0, 0, 29.94838, 1, 1, 760, 800
 87054331, 0, 0.00132027, 9.154672E-05, 0.0008627707, -0.006121278, 0.002431498, -10.78459, 0, 0, 29.95039, 1, 1, 1000, 1000
 87054331, 1, 0.001075663, 7.136411E-05, 0.00092714, -0.005567406, 0.003243169, -10.78158, 0, 0, 29.95039, 1, 1, 760, 800
 87094315, 0, 0.004954685, 0.0004226319, 0.0007659976, -0.005696062, 0.002445819, -10.77416, 0, 0, 29.95239, 1, 1, 1000, 1000
 87094315, 1, 0.004983094, 0.0005164372, 0.0006703917, -0.006904699, 0.003445987, -10.77207, 0, 0, 29.95239, 1, 1, 760, 800
 87134299, 0, 0.004889475, 0.001525065, 0.0007400846, -0.00498127, 0.003627472, -10.78495, 0, 0, 29.9544, 1, 1, 1000, 1000
 87134299, 1, 0.004811207, 0.00155433, 0.0007001618, -0.004156418, 0.004156695, -10.78572, 0, 0, 29.9544, 1, 1, 760, 800
 87174283, 0, 0.003656155, 0.0004171621, 0.0007577292, -0.004978461, 0.002859159, -10.77489, 0, 0, 29.95641, 1, 1, 1000, 1000
 87174283, 1, 0.003656811, 0.0004015614, 0.0007585728, -0.004966422, 0.002452597, -10.77386, 0, 0, 29.95641, 1, 1, 760, 800
 87214267, 0, 0.001144343, 0.003430988, 0.0008293777, -0.003204901, 0.002120415, -10.79208, 0, 0, 29.95841, 1, 1, 1000, 1000
 87214267, 1, 0.001164019, 0.003607476, 0.0006881583, -0.004380831, 0.004823847, -10.79131, 0, 0, 29.95841, 1, 1, 760, 800
 87254251, 0, 0.001629888, 0.00345025, 0.0007520341, -0.005290858, 0.004048372, -10.77314, 0, 0, 29.96042, 1, 1, 1000, 1000
 87254251, 1, 0.001579625, 0.003512355, 0.0007757026, -0.006313133, 0.005044128, -10.77476, 0, 0, 29.96042, 1, 1, 760, 800
 87294235, 0, 0.005355111, 0.001860846, 0.0007387775, -0.005903564, 0.003591413, -10.78805, 0, 0, 29.96242, 1, 1, 1000, 1000
 87294235, 1, 0.005426314, 0.001726194, 0.0005969687, -0.006881801, 0.002771607, -10.78702, 0, 0, 29.96242, 1, 1, 760, 800
 87334219, 0, 0.005150026, 0.002315363, 0.0007864715, -0.005231661, 0.003725427, -10.77538, 0, 0, 29.96443, 1, 1, 1000, 1000
 87334219, 1, 0.005378243, 0.002223737, 0.0008638843, -0.00385432, 0.001508936, -10.77816, 0, 0, 29.96443, 1, 1, 760, 800
 87374203, 0, 0.005301532, -0.0008059464, 0.0008677677, -0.004673351, 0.002347622, -10.78929, 0, 0, 29.96643, 1, 1, 1000, 1000
 87374203, 1, 0.005197575, -0.000653156, 0.0007409393, -0.004988424, 0.003479093, -10.79076, 0, 0, 29.96643, 1, 1, 760, 800
 87414187, 0, 0.001860731, -0.0007491617, 0.0009466372, -0.005545747, 0.004256111, -10.77978, 0, 0, 29.96844, 1, 1, 1000, 1000
 87414187, 1, 0.002035208, -0.0005464636, 0.001077056, -0.006299349, 0.005796522, -10.77824, 0, 0, 29.96844, 1, 1, 760, 800
 87454171, 0, 0.004868924, 0.003533309, 0.001036064, -0.006081322, 0.003390153, -10.78578, 0, 0, 29.97044, 1, 1, 1000, 1000
 87454171, 1, 0.004806901, 0.003604056, 0.001016686, -0.002265629, 0.002484646, -10.78468, 0, 0, 29.97044, 1, 1, 760, 800
 87494155, 0, 0.003110435, 0.003482015, 0.001017385, -0.003847178, 0.002297878, -10.7725, 0, 0, 29.97244, 1, 1, 1000, 1000
 87494155, 1, 0.003171195, 0.003455536, 0.0009532858, -0.00684882, 0.001962477, -10.77463, 0, 0, 29.97244, 1, 1, 760, 800
 87534139, 0, -0.001090264, 0.005762699, 0.0009862797, -0.005534164, 0.003095231, -10.78495, 0, 0, 29.97445, 1, 1, 1000, 1000
 87534139, 1, -0.0009685949, 0.00591442, 0.0009072829, -0.005798194, 0.001293823, -10.78508, 0, 0, 29.97445, 1, 1, 760, 800
 87574123, 0, 0.001786453, 0.001273073, 0.001107801, -0.005270426, 0.003606121, -10.71728, 0, 0, 29.9764, 1, 1, 1000, 1000
 87574123, 1, 0.001811221, 0.001071504, 0.001215264, -0.006240361, 0.004211417, -10.71698, 0, 0, 29.97645, 1, 1, 760, 800
 87614107, 0, -0.00154904, -0.0004993602, 0.001139259, -0.006491522, 0.002413692, -10.62115, 0, 0, 29.9784, 1, 1, 1000, 1000
 87614107, 1, -0.001652472, -0.0004408214, 0.001057814, -0.00639316, 0.002478163, -10.62176, 0, 0, 29.97845, 1, 1, 760, 800
 87654091, 0, -8.931756E-05, 0.000354755, 0.001147774, -0.00379754, 0.002426464, -10.52161, 0, 0, 29.98041, 1, 1, 1000, 1000
 87654091, 1, 3.987123E-06, 0.0003548426, 0.001190678, -0.004430758, 0.000945041, -10.52126, 0, 0, 29.98046, 1, 1, 760, 800
 87694075, 0, 0.001229269, 0.00336265, 0.001122987, -0.005170109, 0.003278592, -10.4269, 0, 0, 29.98241, 1, 1, 1000, 1000
 87694075, 1, 0.0009971334, 0.003353042, 0.001089018, -0.003404682, 0.003024964, -10.42882, 0, 0, 29.98246, 1, 1, 760, 800
 87734059, 0, 0.00195686, 0.00372702, 0.001062526, -0.003254488, 0.002113828, -10.33976, 0, 0, 29.98441, 1, 1, 1000, 1000
 87734059, 1, 0.002156123, 0.003853756, 0.001088789, -0.005131631, 0.001772011, -10.33952, 0, 0, 29.98446, 1, 1, 760, 800
 87774043, 0, 0.0006742012, 0.002005586, 0.001042208, -0.004366636, 0.002116956, -10.25682, 0, 0, 29.98641, 1, 1, 1000, 1000
 87774043, 1, 0.0005539309, 0.001982907, 0.001235641, -0.007073807, 0.002899162, -10.25819, 0, 0, 29.98646, 1, 1, 760, 800
 87814027, 0, 0.00134552, 0.001365265, 0.001034267, -0.004833258, 0.001879326, -10.18332, 0, 0, 29.98841, 1, 1, 1000, 1000
 87814027, 1, 0.001345449, 0.001345635, 0.001086497, -0.008462926, 0.002612277, -10.18428, 0, 0, 29.98846, 1, 1, 760, 800
 87854011, 0, 0.001388089, 0.002819651, 0.001107099, -0.005456665, 0.002247819, -10.11639, 0, 0, 29.99042, 1, 1, 1000, 1000
 87854011, 1, 0.001381279, 0.002911178, 0.001186001, -0.003893496, 0.0006573054, -10.11587, 0, 0, 29.99047, 1, 1, 760, 800
 87893995, 0, 0.001585357, 0.004852226, 0.001103713, -0.006195987, 0.003765588, -10.05622, 0, 0, 29.99242, 1, 1, 1000, 1000
 87893995, 1, 0.001547629, 0.004790694, 0.001193265, -0.004154345, 0.005389649, -10.05629, 0, 0, 29.99242, 1, 1, 760, 800
 87933979, 0, 0.003867446, 0.00311783, 0.001212257, -0.004848653, 0.00225825, -10.00055, 0, 0, 29.99442, 1, 1, 1000, 1000
 87933979, 1, 0.003749941, 0.003170948, 0.001007129, -0.0031229, 0.003142713, -9.999987, 0, 0, 29.99442, 1, 1, 760, 800
 87973963, 0, 0.002023247, -0.0004395793, 0.00126096, -0.004441341, 0.00274403, -9.949645, 0, 0, 29.99642, 1, 1, 1000, 1000
 87973963, 1, 0.002154452, -0.0005631167, 0.001159567, -0.0051356, 0.00232601, -9.948254, 0, 0, 29.99642, 1, 1, 760, 800
 88013947, 0, 0.000218606, 0.003749795, 0.001357889, -0.00479813, 0.002475551, -9.905798, 0, 0, 29.99842, 1, 1, 1000, 1000
 88013947, 1, 0.0001355134, 0.003796416, 0.001386004, -0.00362781, 0.00374145, -9.904973, 0, 0, 29.99842, 1, 1, 760, 800
 88053931, 0, 0.002273971, 0.0002049891, 0.001404799, -0.00556436, 0.001557981, -9.868208, 0, 0, 30.00042, 1, 1, 1000, 1000
 88053931, 1, 0.002392285, 0.000118102, 0.001273535, -0.006553113, 0.00147539, -9.868172, 0, 0, 30.00042, 1, 1, 760, 800
 88093915, 0, 0.004254197, 0.005045169, 0.001388515, -0.004485525, 0.002100749, -9.835946, 0, 0, 30.00242, 1, 1, 1000, 1000
 88093915, 1, 0.00417568, 0.005019213, 0.001291073, -0.004125417, 0.002034473, -9.835666, 0, 0, 30.00242, 1, 1, 760, 800
 88133899, 0, 0.002035928, 0.00270897, 0.001420818, -0.003867793, 0.002494965, -9.801686, 0, 0, 30.00442, 1, 1, 1000, 1000
 88133899, 1, 0.00186819, 0.002751976, 0.00160171, -0.004771949, 0.002806582, -9.803259, 0, 0, 30.00442, 1, 1, 760, 800
 88173883, 0, -0.0009137806, -0.001278993, 0.001500564, -0.0046644, 0.002288665, -9.769248, 0, 0, 30.00642, 1, 1, 1000, 1000
 88173883, 1, -0.0007986991, -0.001372337, 0.001483892, -0.004592425, 0.001784209, -9.771014, 0, 0, 30.00642, 1, 1, 760, 800
 88213867, 0, -0.001772502, -0.001493173, 0.001442722, -0.004394915, 0.001630504, -9.757467, 0, 0, 30.00842, 1, 1, 1000, 1000
 88213867, 1, -0.001648457, -0.001541469, 0.001619918, -0.004350303, 0.002398767, -9.757157, 0, 0, 30.00842, 1, 1, 760, 800
 88253851, 0, 0.0003643133, 3.437813E-05, 0.001466599, -0.003891782, 0.001090602, -9.738123, 0, 0, 30.01041, 1, 1, 1000, 1000
 88253851, 1, 0.0001895342, -3.676486E-05, 0.001275814, -0.004155507, 0.00222953, -9.736324, 0, 0, 30.01041, 1, 1, 760, 800
 88293835, 0, 0.003889056, 0.004034106, 0.001390261, -0.004636967, 0.002423062, -9.717442, 0, 0, 30.01241, 1, 1, 1000, 1000
 88293835, 1, 0.003942879, 0.003991285, 0.001359767, -0.002369588, 0.002705629, -9.716388, 0, 0, 30.01241, 1, 1, 760, 800
 88333819, 0, 0.004167964, 0.005841918, 0.001307817, -0.004688136, 0.002297415, -9.708818, 0, 0, 30.01441, 1, 1, 1000, 1000
 88333819, 1, 0.004314203, 0.005926005, 0.001367826, -0.005045771, 0.00117976, -9.708488, 0, 0, 30.01436, 1, 1, 760, 800
 88373803, 0, 0.0014401, 0.002301872, 0.001300142, -0.00444209, 0.002101087, -9.703976, 0, 0, 30.01641, 1, 1, 1000, 1000
 88373803, 1, 0.001396882, 0.002215854, 0.00138401, -0.003220564, 0.003834949, -9.705063, 0, 0, 30.01636, 1, 1, 760, 800
 88413787, 0, 0.001397014, 0.0009426266, 0.001304028, -0.004520954, 0.002880448, -9.690303, 0, 0, 30.01841, 1, 1, 1000, 1000
 88413787, 1, 0.001371356, 0.001021851, 0.001378169, -0.003497775, 0.001264583, -9.690079, 0, 0, 30.01836, 1, 1, 760, 800
 88453771, 0, 0.002066667, 0.002761184, 0.001211507, -0.004505318, 0.001551609, -9.681154, 0, 0, 30.0204, 1, 1, 1000, 1000
 88453771, 1, 0.002064927, 0.00262523, 0.00128835, -0.004197287, 0.003418688, -9.680004, 0, 0, 30.02036, 1, 1, 760, 800
 88493755, 0, 0.001994189, 0.002522901, 0.00128091, -0.004538713, 0.001250835, -9.683996, 0, 0, 30.0224, 1, 1, 1000, 1000
 88493755, 1, 0.002103542, 0.00256666, 0.001158504, -0.0044037, 0.0014423, -9.682303, 0, 0, 30.02235, 1, 1, 760, 800
 88533739, 0, 0.002026927, 0.002576932, 0.001245829, -0.0038877, 0.003023008, -9.686357, 0, 0, 30.0244, 1, 1, 1000, 1000
 88533739, 1, 0.002075, 0.00258404, 0.001108108, -0.004348204, 0.00357781, -9.686548, 0, 0, 30.02435, 1, 1, 760, 800
 88573723, 0, 0.001985318, 0.002505882, 0.001203204, -0.003320429, 0.001125735, -9.688395, 0, 0, 30.0264, 1, 1, 1000, 1000
 88573723, 1, 0.00189778, 0.002601646, 0.00126548, -0.003706754, 0.0009032568, -9.68917, 0, 0, 30.02634, 1, 1, 760, 800
 88613707, 0, 0.0009820815, 0.002440085, 0.001235494, -0.003943618, 0.001075155, -9.687572, 0, 0, 30.02839, 1, 1, 1000, 1000
 88613707, 1, 0.0008884466, 0.002487101, 0.001207576, -0.004524582, 0.002107074, -9.688068, 0, 0, 30.02834, 1, 1, 760, 800
 88653691, 0, 0.002082239, 0.003558167, 0.0009043816, -0.004691617, 0.002318986, -9.680028, 0, 0, 30.03039, 1, 1, 1000, 1000
 88653691, 1, 0.002306033, 0.003425723, 0.0008953597, -0.001744315, 0.002708344, -9.679935, 0, 0, 30.03034, 1, 1, 760, 800
 88693675, 0, 0.004631754, 0.005007052, 0.000737484, -0.004033498, 0.001359562, -9.683708, 0, 0, 30.03238, 1, 1, 1000, 1000
 88693675, 1, 0.004620855, 0.00524524, 0.0007570635, -0.003917643, 0.002429528, -9.682894, 0, 0, 30.03233, 1, 1, 760, 800
 88733659, 0, 0.00444502, 0.003477867, 0.0006043845, -0.004051074, 0.001916482, -9.691815, 0, 0, 30.03438, 1, 1, 1000, 1000
 88733659, 1, 0.004449205, 0.003525519, 0.000676031, -0.005280468, 0.001861591, -9.692377, 0, 0, 30.03433, 1, 1, 760, 800
 88773643, 0, 0.002314166, 0.003097458, 0.0004788671, -0.003992939, 0.001110371, -9.700405, 0, 0, 30.03638, 1, 1, 1000, 1000
 88773643, 1, 0.002234308, 0.003212885, 0.0003404529, -0.004227415, 0.001698746, -9.700178, 0, 0, 30.03633, 1, 1, 760, 800
 88813627, 0, -0.002373409, 0.003105717, 0.0003865884, -0.003139066, 0.0007375607, -9.702755, 0, 0, 30.03837, 1, 1, 1000, 1000
 88813627, 1, -0.002249948, 0.003239752, 0.0003304687, -0.00375181, 0.001594004, -9.701479, 0, 0, 30.03832, 1, 1, 760, 800
 88853611, 0, -0.002048841, 0.003041787, 0.000425434, -0.004425668, 0.001241251, -9.705886, 0, 0, 30.04037, 1, 1, 1000, 1000
 88853611, 1, -0.00205597, 0.003060075, 0.0002908779, -0.001336747, 0.0009864144, -9.70336, 0, 0, 30.04032, 1, 1, 760, 800
 88894428, 0, -0.001909396, 0.002974507, 0.0003577443, -0.003863179, 0.001876953, -9.708518, 0, 0, 30.04241, 1, 1, 1000, 1000
 88894428, 1, -0.002084966, 0.00307847, 0.0004304764, -0.003743301, 0.002007765, -9.708588, 0, 0, 30.04241, 1, 1, 760, 800
 88934412, 0, -0.0002864944, 0.002901126, 0.0004136087, -0.003196863, 0.001125309, -9.710857, 0, 0, 30.0444, 1, 1, 1000, 1000
 88934412, 1, -0.0002744463, 0.00285905, 0.0004931072, -0.002123241, -0.0001339146, -9.713321, 0, 0, 30.0444, 1, 1, 760, 800
 88974396, 0, 0.0007605188, 0.0004521428, 0.0004268615, -0.002317359, 0.0005520503, -9.717062, 0, 0, 30.0464, 1, 1, 1000, 1000
 88974396, 1, 0.0008244002, 0.0006869343, 0.0004910203, -0.003655637, -0.000701464, -9.71656, 0, 0, 30.0464, 1, 1, 760, 800
 89014380, 0, 4.198546E-05, -0.002415927, 0.0002625832, -0.002310717, 0.0009167508, -9.724185, 0, 0, 30.04839, 1, 1, 1000, 1000
 89014380, 1, 0.0001593389, -0.002331822, 0.000300257, -0.004034217, 0.0003992456, -9.723074, 0, 0, 30.04839, 1, 1, 760, 800
 89054364, 0, 0.0008600007, 0.001401151, 0.0003822493, -0.002449054, -0.0001384027, -9.735989, 0, 0, 30.05038, 1, 1, 1000, 1000
 89054364, 1, 0.0009732437, 0.001413546, 0.0001854162, -0.001899149, 0.001524682, -9.737795, 0, 0, 30.05038, 1, 1, 760, 800
 89094348, 0, 0.002724188, 0.001756868, 0.0004492874, -0.002949162, 0.0001223203, -9.739877, 0, 0, 30.05238, 1, 1, 1000, 1000
 89094348, 1, 0.002587792, 0.001711254, 0.0004505535, -0.004165018, 0.001078532, -9.741192, 0, 0, 30.05238, 1, 1, 760, 800
 89134332, 0, 0.002097877, 0.001479473, 0.0006027182, -0.003710133, 0.0001304221, -9.748812, 0, 0, 30.05437, 1, 1, 1000, 1000
 89134332, 1, 0.002222158, 0.001331135, 0.0006630407, -0.001094553, 9.246807E-05, -9.746544, 0, 0, 30.05437, 1, 1, 760, 800
 89174316, 0, 0.002064302, 0.0001711364, 0.0006802821, -0.003326589, 0.001074873, -9.752281, 0, 0, 30.05636, 1, 1, 1000, 1000
 89174316, 1, 0.002065641, 0.000235271, 0.0006947022, -0.003750326, 3.541048E-06, -9.751507, 0, 0, 30.05636, 1, 1, 760, 800
 89214300, 0, 0.002056945, 0.0002429938, 0.0006707214, -0.001565934, 1.665423E-05, -9.753633, 0, 0, 30.05836, 1, 1, 1000, 1000
 89214300, 1, 0.001992345, 0.0003806616, 0.000693916, -0.000761543, -5.781919E-05, -9.752872, 0, 0, 30.05836, 1, 1, 760, 800
