Time,IMU_I,IMU_GyrX,IMU_GyrY,IMU_GyrZ,IMU_AccX,IMU_AccY,IMU_AccZ,IMU_EG,IMU_EA,IMU_T,IMU_GH,IMU_AH,IMU_GHz,IMU_AHz
 101134530, 0, 0.001405024, 0.001459102, 0.0014626, -0.001838963, -0.0002372143, -9.818506, 0, 0, 30.6404, 1, 1, 1000, 1000
 101134530, 1, 0.001605619, 0.001821309, 0.00161216, -0.002568841, -0.002845076, -9.817043, 0, 0, 30.6404, 1, 1, 760, 800
 101174514, 0, 0.001509904, 0.001385337, 0.001456366, -0.001374044, -0.00111764, -9.817324, 0, 0, 30.64231, 1, 1, 1000, 1000
 101174514, 1, 0.001346842, 0.001060582, 0.0014972, 0.0009445791, -0.001280307, -9.816441, 0, 0, 30.64231, 1, 1, 760, 800
 101214498, 0, 0.001516644, 0.001478945, 0.00146319, -0.0003978777, -0.0006944619, -9.817194, 0, 0, 30.64423, 1, 1, 1000, 1000
 101214498, 1, 0.001770516, 0.001554569, 0.001823666, -0.0005741923, -0.0003797018, -9.817144, 0, 0, 30.64423, 1, 1, 760, 800
 101254482, 0, 0.00147018, 0.001428577, 0.001456764, -0.0009677368, -0.001249974, -9.816934, 0, 0, 30.64614, 1, 1, 1000, 1000
 101254482, 1, 0.001379672, 0.001585648, 0.00139501, -0.001819952, -0.003577179, -9.819528, 0, 0, 30.64614, 1, 1, 760, 800
 101294466, 0, 0.00149597, 0.001430335, 0.00150217, -0.001826919, -0.001419752, -9.817256, 0, 0, 30.64805, 1, 1, 1000, 1000
 101294466, 1, 0.001476228, 0.001565444, 0.001310567, 0.0002294839, -0.0001605282, -9.817642, 0, 0, 30.64805, 1, 1, 760, 800
 101334450, 0, 0.001385447, 0.001488721, 0.00146199, -0.0008031286, -0.0008564625, -9.818222, 0, 0, 30.64997, 1, 1, 1000, 1000
 101334450, 1, 0.001358262, 0.001556178, 0.001370952, -0.000807317, -0.0005238112, -9.817707, 0, 0, 30.64997, 1, 1, 760, 800
 101374434, 0, 0.001460217, 0.001422993, 0.00146412, -0.001186551, -0.001518197, -9.816881, 0, 0, 30.65188, 1, 1, 1000, 1000
 101374434, 1, 0.001607488, 0.00158943, 0.001550281, -0.00210596, -0.002435185, -9.816164, 0, 0, 30.65188, 1, 1, 760, 800
 101414418, 0, 0.00151876, 0.001377663, 0.00140647, -0.001104059, -0.001266462, -9.819005, 0, 0, 30.65379, 1, 1, 1000, 1000
 101414418, 1, 0.001652108, 0.00165645, 0.001079574, -0.0008266089, -0.001665074, -9.815375, 0, 0, 30.65379, 1, 1, 760, 800
 101454402, 0, 0.001425241, 0.001445192, 0.001412441, 0.000408277, -0.001372036, -9.817727, 0, 0, 30.65571, 1, 1, 1000, 1000
 101454402, 1, 0.001774345, 0.001378836, 0.001508197, -0.001854391, -0.000922775, -9.817409, 0, 0, 30.65571, 1, 1, 760, 800
 101494386, 0, 0.001491624, 0.001411249, 0.001494055, -0.000767571, -0.0004446021, -9.818143, 0, 0, 30.65762, 1, 1, 1000, 1000
 101494386, 1, 0.001271724, 0.001637813, 0.00136079, -0.002534733, 0.0001277064, -9.817694, 0, 0, 30.65762, 1, 1, 760, 800
 101534370, 0, 0.00144511, 0.001438216, 0.001428262, -0.000939795, -0.0009884048, -9.817186, 0, 0, 30.65953, 1, 1, 1000, 1000
 101534370, 1, 0.001251477, 0.001535734, 0.001562113, -0.001409291, 0.0007643249, -9.817577, 0, 0, 30.65953, 1, 1, 760, 800
 101574354, 0, 0.001469206, 0.001465417, 0.001462302, -0.0004736127, -0.0006197563, -9.817497, 0, 0, 30.66144, 1, 1, 1000, 1000
 101574354, 1, 0.001655443, 0.001353861, 0.001447415, -0.002960296, -0.001940048, -9.818151, 0, 0, 30.66144, 1, 1, 760, 800
 101614338, 0, 0.001412789, 0.001452483, 0.001474393, -0.001914905, -0.001769864, -9.817318, 0, 0, 30.66335, 1, 1, 1000, 1000
 101614338, 1, 0.001430107, 0.001678501, 0.001466385, -0.0003460143, 7.400499E-05, -9.818614, 0, 0, 30.66335, 1, 1, 760, 800
 101654322, 0, 0.001460223, 0.001453374, 0.001440705, -0.001033974, -0.0002219244, -9.81868, 0, 0, 30.66526, 1, 1, 1000, 1000
 101654322, 1, 0.001212994, 0.001398973, 0.001507065, -0.001680227, 0.001336567, -9.818786, 0, 0, 30.66526, 1, 1, 760, 800
 101694306, 0, 0.001424052, 0.001436066, 0.001422541, -0.001023375, -0.0004186689, -9.817503, 0, 0, 30.66718, 1, 1, 1000, 1000
 101694306, 1, 0.001412889, 0.001605038, 0.001281032, -0.002179768, 0.0005433403, -9.815395, 0, 0, 30.66718, 1, 1, 760, 800
 101734290, 0, 0.001443012, 0.001437531, 0.001511013, -0.001158501, -0.001056849, -9.81603, 0, 0, 30.66909, 1, 1, 1000, 1000
 101734290, 1, 0.001488396, 0.001773086, 0.001553547, -0.00173093, -0.001639276, -9.819229, 0, 0, 30.66909, 1, 1, 760, 800
 101774274, 0, 0.001425084, 0.001488282, 0.001404176, -0.0008493779, -0.00175582, -9.817368, 0, 0, 30.671, 1, 1, 1000, 1000
 101774274, 1, 0.001539618, 0.001519315, 0.001451549, -0.0009317383, -0.001345831, -9.819139, 0, 0, 30.671, 1, 1, 760, 800
 101814258, 0, 0.001550668, 0.001371191, 0.001440386, -0.001874903, -0.0009036832, -9.81765, 0, 0, 30.67291, 1, 1, 1000, 1000
 101814258, 1, 0.00183232, 0.001372706, 0.001540166, 0.001514291, -0.001638488, -9.817039, 0, 0, 30.67291, 1, 1, 760, 800
 101854242, 0, 0.001416983, 0.001382673, 0.001464676, -0.00200694, -0.001840482, -9.817249, 0, 0, 30.67482, 1, 1, 1000, 1000
 101854242, 1, 0.00147805, 0.001370392, 0.001401612, -0.002428818, -0.002787803, -9.816847, 0, 0, 30.67482, 1, 1, 760, 800
 101894226, 0, 0.001506356, 0.001535176, 0.00154458, -0.001371021, -0.001322908, -9.817589, 0, 0, 30.67673, 1, 1, 1000, 1000
 101894226, 1, 0.001600727, 0.001451459, 0.001482639, 0.0009166188, -0.003847563, -9.817675, 0, 0, 30.67673, 1, 1, 760, 800
 101934210, 0, 0.001377586, 0.001438226, 0.001390953, -0.00149386, -0.001035856, -9.81832, 0, 0, 30.67864, 1, 1, 1000, 1000
 101934210, 1, 0.00135515, 0.001373602, 0.001576126, -0.001815864, 0.000576088, -9.818544, 0, 0, 30.67864, 1, 1, 760, 800
 101974194, 0, 0.001416696, 0.001446103, 0.00151969, -0.0002607832, -0.001467069, -9.817113, 0, 0, 30.68055, 1, 1, 1000, 1000
 101974194, 1, 0.001504172, 0.001589358, 0.001506817, -0.002500887, -0.0001847501, -9.815071, 0, 0, 30.68055, 1, 1, 760, 800
 102014178, 0, 0.001464339, 0.001492791, 0.00156241, -0.0005404092, -0.0004940691, -9.818037, 0, 0, 30.68246, 1, 1, 1000, 1000
 102014178, 1, 0.001375184, 0.001354336, 0.001601748, 0.000186744, 6.428482E-05, -9.819209, 0, 0, 30.68246, 1, 1, 760, 800
 102054162, 0, 0.00140315, 0.001439327, 0.001396727, -0.0002011496, -0.001425502, -9.817892, 0, 0, 30.68436, 1, 1, 1000, 1000
 102054162, 1, 0.001534292, 0.001251506, 0.001442596, -0.0006581427, 0.0005394117, -9.816403, 0, 0, 30.68436, 1, 1, 760, 800
 102094146, 0, 0.001524603, 0.001452544, 0.001519147, -0.0003995456, -0.001212986, -9.818602, 0, 0, 30.68627, 1, 1, 1000, 1000
 102094146, 1, 0.001647721, 0.001590654, 0.001497651, 0.001841245, 0.0002878244, -9.818192, 0, 0, 30.68627, 1, 1, 760, 800
 102134130, 0, 0.001471407, 0.001426261, 0.001451484, -0.0005861893, -0.001548062, -9.817757, 0, 0, 30.68814, 1, 1, 1000, 1000
 102134130, 1, 0.001339989, 0.001565087, 0.001701613, 0.002148005, -0.001979504, -9.81903, 0, 0, 30.68818, 1, 1, 760, 800
 102174114, 0, 0.001494187, 0.001545515, 0.001450496, -0.0007204321, -0.0002221856, -9.817677, 0, 0, 30.69004, 1, 1, 1000, 1000
 102174114, 1, 0.001735857, 0.001655386, 0.001405986, -0.002578398, -0.002541615, -9.817297, 0, 0, 30.69009, 1, 1, 760, 800
 102214098, 0, 0.001575219, 0.001367416, 0.00157823, -0.001198787, -0.001538186, -9.817163, 0, 0, 30.69195, 1, 1, 1000, 1000
 102214098, 1, 0.001343853, 0.001354792, 0.001349246, -0.0003137999, -0.0002705518, -9.818636, 0, 0, 30.692, 1, 1, 760, 800
 102254082, 0, 0.001517483, 0.001440306, 0.00144844, -0.0007718058, -0.000205368, -9.816493, 0, 0, 30.69386, 1, 1, 1000, 1000
 102254082, 1, 0.001470372, 0.001502446, 0.001683241, -0.002575566, -0.001433186, -9.815713, 0, 0, 30.69391, 1, 1, 760, 800
 102294066, 0, 0.001435747, 0.001446345, 0.001466176, -0.0001954025, -0.001117383, -9.818954, 0, 0, 30.69577, 1, 1, 1000, 1000
 102294066, 1, 0.001459704, 0.00126757, 0.001474217, -0.00117564, -0.0009394244, -9.819705, 0, 0, 30.69581, 1, 1, 760, 800
 102334050, 0, 0.001529881, 0.001508302, 0.001494719, -0.0005595445, -0.0003503851, -9.817679, 0, 0, 30.69767, 1, 1, 1000, 1000
 102334050, 1, 0.001529525, 0.001379018, 0.001304118, 0.0006201172, -0.00126721, -9.81963, 0, 0, 30.69772, 1, 1, 760, 800
 102374034, 0, 0.001504585, 0.001487503, 0.001446812, -0.001595618, -0.001455368, -9.816941, 0, 0, 30.69958, 1, 1, 1000, 1000
 102374034, 1, 0.001418384, 0.00161233, 0.001474397, -0.002490739, -0.002649443, -9.81674, 0, 0, 30.69963, 1, 1, 760, 800
 102414018, 0, 0.001493505, 0.001482622, 0.001427415, -0.001515677, -0.0008504854, -9.817532, 0, 0, 30.70148, 1, 1, 1000, 1000
 102414018, 1, 0.001445154, 0.001568814, 0.00128534, 0.0002267286, 3.802143E-05, -9.815532, 0, 0, 30.70153, 1, 1, 760, 800
 102454002, 0, 0.001474923, 0.001448055, 0.00145406, -0.0008459014, -0.00189138, -9.817886, 0, 0, 30.70339, 1, 1, 1000, 1000
 102454002, 1, 0.001579362, 0.00162825, 0.001510774, 0.0006020202, -0.002114315, -9.817657, 0, 0, 30.70344, 1, 1, 760, 800
 102493986, 0, 0.00151348, 0.001503342, 0.001450419, -0.0004527905, -0.0009987503, -9.817312, 0, 0, 30.7053, 1, 1, 1000, 1000
 102493986, 1, 0.001229111, 0.00126566, 0.001594016, -0.000237803, -0.001672719, -9.816188, 0, 0, 30.7053, 1, 1, 760, 800
 102533970, 0, 0.001402, 0.00147804, 0.001445662, -0.0006331, -0.001856239, -9.817905, 0, 0, 30.7072, 1, 1, 1000, 1000
 102533970, 1, 0.001384108, 0.001616682, 0.001401903, -0.00294411, 0.0008515005, -9.817047, 0, 0, 30.7072, 1, 1, 760, 800
 102573954, 0, 0.001546218, 0.001458907, 0.001483158, -0.00059688, -0.00139406, -9.817888, 0, 0, 30.70911, 1, 1, 1000, 1000
 102573954, 1, 0.001633137, 0.00155421, 0.001634222, -0.002302722, -0.0006588117, -9.815325, 0, 0, 30.70911, 1, 1, 760, 800
 102613938, 0, 0.001471021, 0.001485779, 0.001490782, -0.001236313, -0.001258721, -9.817015, 0, 0, 30.71102, 1, 1, 1000, 1000
 102613938, 1, 0.001587704, 0.001561467, 0.001426985, 0.0008690738, -0.0001509078, -9.818493, 0, 0, 30.71102, 1, 1, 760, 800
 102653922, 0, 0.001487016, 0.001489692, 0.001468944, 0.0001118945, -0.001083829, -9.817289, 0, 0, 30.71292, 1, 1, 1000, 1000
 102653922, 1, 0.00153924, 0.001392623, 0.001019288, 0.0004223353, -0.001268617, -9.813803, 0, 0, 30.71292, 1, 1, 760, 800
 102693906, 0, 0.001500549, 0.001383453, 0.001480275, -0.001350718, -0.001171894, -9.816487, 0, 0, 30.71482, 1, 1, 1000, 1000
 102693906, 1, 0.001509456, 0.001638013, 0.001689043, -0.001318101, -0.0002424949, -9.815489, 0, 0, 30.71482, 1, 1, 760, 800
 102733890, 0, 0.001410191, 0.001479636, 0.001483728, -0.001398475, -0.001042911, -9.817422, 0, 0, 30.71673, 1, 1, 1000, 1000
 102733890, 1, 0.001226186, 0.001395499, 0.001443047, -2.278722E-05, -0.0002010492, -9.817723, 0, 0, 30.71673, 1, 1, 760, 800
 102773874, 0, 0.001435671, 0.001498059, 0.00155242, -0.0008458454, -0.001580594, -9.817429, 0, 0, 30.71863, 1, 1, 1000, 1000
 102773874, 1, 0.001434035, 0.001315744, 0.001369465, -0.002280679, -0.003211925, -9.817614, 0, 0, 30.71863, 1, 1, 760, 800
 102813858, 0, 0.00149633, 0.001514258, 0.001487514, -0.001172095, -0.001500689, -9.817293, 0, 0, 30.72054, 1, 1, 1000, 1000
 102813858, 1, 0.001342476, 0.001586505, 0.001375338, -0.002015381, 0.002532703, -9.816791, 0, 0, 30.72054, 1, 1, 760, 800
 102853842, 0, 0.001532233, 0.001444553, 0.001488979, -0.0009697094, -0.0008390763, -9.817844, 0, 0, 30.72244, 1, 1, 1000, 1000
 102853842, 1, 0.00130405, 0.001395434, 0.001282624, -0.002740164, -0.002523545, -9.81761, 0, 0, 30.72244, 1, 1, 760, 800
 102893826, 0, 0.001472506, 0.001424682, 0.00143824, -0.0004180065, -0.001590789, -9.818001, 0, 0, 30.72435, 1, 1, 1000, 1000
 102893826, 1, 0.001340885, 0.001460237, 0.001450528, -0.003153295, 0.0005766719, -9.815743, 0, 0, 30.7243, 1, 1, 760, 800
 102933810, 0, 0.001421157, 0.001508088, 0.00154266, -0.0008871466, -0.0008300326, -9.817652, 0, 0, 30.72625, 1, 1, 1000, 1000
 102933810, 1, 0.001501525, 0.001688781, 0.00137518, 0.002180586, 0.0008817381, -9.816805, 0, 0, 30.7262, 1, 1, 760, 800
 102973794, 0, 0.001526275, 0.001516563, 0.001457448, -0.002113729, -0.0004309332, -9.817602, 0, 0, 30.72815, 1, 1, 1000, 1000
 102973794, 1, 0.001235164, 0.001603656, 0.001510162, -0.001875987, 0.002088053, -9.817494, 0, 0, 30.7281, 1, 1, 760, 800
 103013778, 0, 0.001453868, 0.001479273, 0.001472754, -0.0008458827, -0.001985477, -9.817675, 0, 0, 30.73005, 1, 1, 1000, 1000
 103013778, 1, 0.001564466, 0.001419177, 0.001690176, -0.001002169, -0.003142258, -9.817462, 0, 0, 30.73001, 1, 1, 760, 800
 103053762, 0, 0.001470736, 0.001484348, 0.001425638, -0.001109306, -0.0005843276, -9.818625, 0, 0, 30.73196, 1, 1, 1000, 1000
 103053762, 1, 0.001198847, 0.001455846, 0.001380015, -0.00311924, 0.0001104827, -9.81923, 0, 0, 30.73191, 1, 1, 760, 800
 103093746, 0, 0.001475543, 0.001467839, 0.001431736, -0.0008422228, -0.001732937, -9.819044, 0, 0, 30.73386, 1, 1, 1000, 1000
 103093746, 1, 0.001335644, 0.001326974, 0.001291592, -0.001712613, -0.0007697063, -9.817018, 0, 0, 30.73381, 1, 1, 760, 800
 103133730, 0, 0.001437301, 0.001537899, 0.001433403, -0.001537709, 0.0005035919, -9.818065, 0, 0, 30.73576, 1, 1, 1000, 1000
 103133730, 1, 0.001355988, 0.001646541, 0.001572057, -0.001668617, -0.003105373, -9.815926, 0, 0, 30.73571, 1, 1, 760, 800
 103173714, 0, 0.001456468, 0.001477938, 0.001410711, -0.0009477446, -0.0008063747, -9.817741, 0, 0, 30.73766, 1, 1, 1000, 1000
 103173714, 1, 0.001386103, 0.001368247, 0.001164229, 0.00216959, -0.0002783993, -9.818743, 0, 0, 30.73762, 1, 1, 760, 800
 103213698, 0, 0.001490853, 0.001424275, 0.001409566, -0.001408366, -0.001962557, -9.817952, 0, 0, 30.73956, 1, 1, 1000, 1000
 103213698, 1, 0.001551544, 0.001508599, 0.001349488, -0.002770542, -5.523377E-05, -9.819184, 0, 0, 30.73952, 1, 1, 760, 800
 103254515, 0, 0.001504861, 0.001420411, 0.001495984, -0.001946215, -0.002379781, -9.817766, 0, 0, 30.74151, 1, 1, 1000, 1000
 103254515, 1, 0.001210504, 0.00150921, 0.001478534, -0.0003347161, -0.0007434215, -9.81992, 0, 0, 30.74151, 1, 1, 760, 800
 103294499, 0, 0.00154473, 0.001465045, 0.001493269, -0.0007377024, -9.572721E-05, -9.818276, 0, 0, 30.74342, 1, 1, 1000, 1000
 103294499, 1, 0.001495847, 0.001526085, 0.001578421, -0.00117512, 0.0004871753, -9.818512, 0, 0, 30.74342, 1, 1, 760, 800
 103334483, 0, 0.001596653, 0.001505313, 0.00149718, -0.0009535434, -0.0006192224, -9.817175, 0, 0, 30.74532, 1, 1, 1000, 1000
 103334483, 1, 0.001527944, 0.001501137, 0.001558728, -0.001088617, -0.002240932, -9.81752, 0, 0, 30.74532, 1, 1, 760, 800
 103374467, 0, 0.001476532, 0.001562794, 0.001395593, -0.001324922, -0.0005012812, -9.817056, 0, 0, 30.74722, 1, 1, 1000, 1000
 103374467, 1, 0.001452558, 0.001627357, 0.001256958, 0.0005162307, -0.001411702, -9.818604, 0, 0, 30.74722, 1, 1, 760, 800
 103414451, 0, 0.001483271, 0.001426783, 0.001464405, -0.0007280594, -0.0009599443, -9.817484, 0, 0, 30.74911, 1, 1, 1000, 1000
 103414451, 1, 0.001263779, 0.001646828, 0.001468034, -0.00208934, 0.0003083693, -9.816817, 0, 0, 30.74911, 1, 1, 760, 800
 103454435, 0, 0.001553867, 0.001489945, 0.001518645, -0.0005177525, -0.001815149, -9.818405, 0, 0, 30.75102, 1, 1, 1000, 1000
 103454435, 1, 0.001644324, 0.001330214, 0.001499401, -0.0003263233, -0.0006357996, -9.818619, 0, 0, 30.75102, 1, 1, 760, 800
 103494419, 0, 0.00144105, 0.0014589, 0.001458903, -0.001278279, -0.001090655, -9.817205, 0, 0, 30.75292, 1, 1, 1000, 1000
 103494419, 1, 0.001551596, 0.001412272, 0.001274347, 1.394854E-05, -0.0008964829, -9.817242, 0, 0, 30.75292, 1, 1, 760, 800
 103534403, 0, 0.00149693, 0.001495649, 0.001528083, -0.001641806, -0.001927462, -9.817459, 0, 0, 30.75481, 1, 1, 1000, 1000
 103534403, 1, 0.001555806, 0.001463385, 0.001607952, -0.001617686, -0.001038363, -9.816645, 0, 0, 30.75481, 1, 1, 760, 800
 103574387, 0, 0.001469072, 0.001556281, 0.00141859, -0.001272013, 0.0008966104, -9.816671, 0, 0, 30.75671, 1, 1, 1000, 1000
 103574387, 1, 0.001399673, 0.001650525, 0.001391872, 0.0002551376, -0.004665116, -9.816492, 0, 0, 30.75671, 1, 1, 760, 800
 103614371, 0, 0.001491145, 0.001474787, 0.001550441, -0.0007347174, -0.001532981, -9.817795, 0, 0, 30.75861, 1, 1, 1000, 1000
 103614371, 1, 0.001408365, 0.001555697, 0.001439652, -0.002790575, -0.004230838, -9.817422, 0, 0, 30.75861, 1, 1, 760, 800
 103654355, 0, 0.001492468, 0.001468043, 0.001475033, -0.00146805, -0.0004119878, -9.817854, 0, 0, 30.76051, 1, 1, 1000, 1000
 103654355, 1, 0.001543712, 0.001448461, 0.001441571, 0.0004714715, -0.0009608887, -9.817436, 0, 0, 30.76051, 1, 1, 760, 800
 103694339, 0, 0.001520598, 0.001439576, 0.001466839, -0.001996999, -0.001200693, -9.817289, 0, 0, 30.76241, 1, 1, 1000, 1000
 103694339, 1, 0.001381224, 0.001572198, 0.001552603, -0.003309285, -0.002156363, -9.818633, 0, 0, 30.76241, 1, 1, 760, 800
 103734323, 0, 0.00141823, 0.001474556, 0.001491329, -0.0002506502, -0.001742105, -9.81875, 0, 0, 30.76431, 1, 1, 1000, 1000
 103734323, 1, 0.001343365, 0.001189956, 0.001558395, -0.0007644972, -0.001770771, -9.818829, 0, 0, 30.76431, 1, 1, 760, 800
 103774307, 0, 0.001446558, 0.001510902, 0.001448483, -0.001170952, -0.0007518948, -9.817487, 0, 0, 30.76621, 1, 1, 1000, 1000
 103774307, 1, 0.001605734, 0.001517758, 0.001580022, -0.0009195212, 0.000323125, -9.818413, 0, 0, 30.76621, 1, 1, 760, 800
 103814291, 0, 0.001442994, 0.001530043, 0.001386999, -0.0009226346, -0.0003703609, -9.816692, 0, 0, 30.7681, 1, 1, 1000, 1000
 103814291, 1, 0.001472649, 0.0017485, 0.001549431, -0.0003777184, -0.0006136683, -9.816267, 0, 0, 30.7681, 1, 1, 760, 800
 103854275, 0, 0.001453679, 0.001568939, 0.001490225, -0.001106879, 0.0001708601, -9.817526, 0, 0, 30.77, 1, 1, 1000, 1000
 103854275, 1, 0.001648548, 0.001642441, 0.001637501, -0.0006311693, 0.001041638, -9.816884, 0, 0, 30.77, 1, 1, 760, 800
 103894259, 0, 0.001476708, 0.00157014, 0.001491178, -0.001613576, 0.0003033244, -9.816341, 0, 0, 30.7719, 1, 1, 1000, 1000
 103894259, 1, 0.001474695, 0.001425279, 0.00156544, -0.00050627, -0.0002253104, -9.818962, 0, 0, 30.7719, 1, 1, 760, 800
 103934243, 0, 0.001561334, 0.001579791, 0.001371871, -0.001043623, -0.0007520228, -9.817579, 0, 0, 30.7738, 1, 1, 1000, 1000
 103934243, 1, 0.00147522, 0.00167129, 0.001520876, -0.0002592636, -0.003696489, -9.816797, 0, 0, 30.7738, 1, 1, 760, 800
 103974227, 0, 0.00144701, 0.001472933, 0.001495791, -0.0003571649, -0.001307504, -9.81638, 0, 0, 30.77569, 1, 1, 1000, 1000
 103974227, 1, 0.00152221, 0.001569649, 0.001492067, -0.001182983, -0.0007035588, -9.816388, 0, 0, 30.77569, 1, 1, 760, 800
 104014211, 0, 0.001452724, 0.001462554, 0.0015694, -0.0007608299, -9.210177E-06, -9.818306, 0, 0, 30.77759, 1, 1, 1000, 1000
 104014211, 1, 0.001498779, 0.001502305, 0.001447402, -0.000149933, -0.002242425, -9.817007, 0, 0, 30.77759, 1, 1, 760, 800
 104054195, 0, 0.001410423, 0.001476464, 0.001503256, -0.0003691302, -0.001264623, -9.818593, 0, 0, 30.77949, 1, 1, 1000, 1000
 104054195, 1, 0.001457484, 0.001537611, 0.001720926, -0.0007318807, -0.003256576, -9.815721, 0, 0, 30.77949, 1, 1, 760, 800
 104094179, 0, 0.001497328, 0.001536254, 0.001491772, -0.001166402, 7.481028E-05, -9.817543, 0, 0, 30.78138, 1, 1, 1000, 1000
 104094179, 1, 0.001288359, 0.001598595, 0.00146914, -0.002490648, -0.002634846, -9.814634, 0, 0, 30.78138, 1, 1, 760, 800
 104134163, 0, 0.001577644, 0.001481193, 0.001498639, -0.001635131, -0.000645695, -9.817029, 0, 0, 30.78328, 1, 1, 1000, 1000
 104134163, 1, 0.001260661, 0.00160755, 0.001515423, -0.002153262, -0.001828057, -9.820033, 0, 0, 30.78328, 1, 1, 760, 800
 104174147, 0, 0.001512118, 0.001473225, 0.001540426, -0.0009579816, -0.0009056279, -9.817186, 0, 0, 30.78517, 1, 1, 1000, 1000
 104174147, 1, 0.001493754, 0.00160359, 0.001405496, 0.0002365157, -0.0002517572, -9.816587, 0, 0, 30.78517, 1, 1, 760, 800
 104214131, 0, 0.001488596, 0.001520339, 0.001459686, -0.0007480489, -0.001523155, -9.817965, 0, 0, 30.78702, 1, 1, 1000, 1000
 104214131, 1, 0.001297281, 0.001384962, 0.00155822, 0.0007013233, -0.001693573, -9.817577, 0, 0, 30.78707, 1, 1, 760, 800
 104254115, 0, 0.001508962, 0.001514491, 0.001457937, -0.0002448705, -0.002049817, -9.817535, 0, 0, 30.78892, 1, 1, 1000, 1000
 104254115, 1, 0.001571009, 0.001206314, 0.001608678, 0.0001198143, -0.003408143, -9.817129, 0, 0, 30.78896, 1, 1, 760, 800
 104294099, 0, 0.001503426, 0.001495813, 0.001513111, -0.001651937, -0.0005640772, -9.817227, 0, 0, 30.79081, 1, 1, 1000, 1000
 104294099, 1, 0.001401519, 0.001552105, 0.001619364, -0.0006538351, -0.002672141, -9.817099, 0, 0, 30.79086, 1, 1, 760, 800
 104334083, 0, 0.001501871, 0.001516709, 0.001511577, -0.0009794888, -0.0007120988, -9.818129, 0, 0, 30.79271, 1, 1, 1000, 1000
 104334083, 1, 0.001318258, 0.001452233, 0.001442363, -0.001227627, -0.002220605, -9.816846, 0, 0, 30.79275, 1, 1, 760, 800
 104374067, 0, 0.001559423, 0.001504033, 0.00152764, -0.0001874219, -0.001527433, -9.818175, 0, 0, 30.7946, 1, 1, 1000, 1000
 104374067, 1, 0.001510901, 0.001358135, 0.001515523, -0.001100095, -0.003839662, -9.815602, 0, 0, 30.79465, 1, 1, 760, 800
 104414051, 0, 0.001543811, 0.00149105, 0.001533195, -0.001488271, -0.0008584766, -9.818086, 0, 0, 30.79649, 1, 1, 1000, 1000
 104414051, 1, 0.001513516, 0.001515705, 0.00148158, -0.0009701499, -0.002088312, -9.81731, 0, 0, 30.79654, 1, 1, 760, 800
 104454035, 0, 0.0015041, 0.001506408, 0.001515477, -0.001360065, -0.0003997424, -9.817094, 0, 0, 30.79839, 1, 1, 1000, 1000
 104454035, 1, 0.001642822, 0.001416828, 0.001335475, -0.0007154899, -0.0005153, -9.815279, 0, 0, 30.79844, 1, 1, 760, 800
 104494019, 0, 0.001510669, 0.001539829, 0.0014711, -0.000719021, -0.001823247, -9.817154, 0, 0, 30.80028, 1, 1, 1000, 1000
 104494019, 1, 0.001599067, 0.001583281, 0.001463765, -0.001402691, -0.001865143, -9.818018, 0, 0, 30.80033, 1, 1, 760, 800
 104534003, 0, 0.001491966, 0.001439035, 0.001430314, -0.001266882, -0.0006063534, -9.818171, 0, 0, 30.80217, 1, 1, 1000, 1000
 104534003, 1, 0.001599633, 0.001169151, 0.001563069, -0.0006382856, -0.003259205, -9.820642, 0, 0, 30.80222, 1, 1, 760, 800
 104573987, 0, 0.001517439, 0.001489632, 0.001496866, -0.0001583507, -0.000719376, -9.817697, 0, 0, 30.80407, 1, 1, 1000, 1000
 104573987, 1, 0.001798224, 0.001571128, 0.001293217, 6.05424E-05, -0.003430026, -9.81818, 0, 0, 30.80407, 1, 1, 760, 800
 104613971, 0, 0.00154583, 0.001499304, 0.001564654, -0.000734816, -0.0008014499, -9.817202, 0, 0, 30.80596, 1, 1, 1000, 1000
 104613971, 1, 0.001530115, 0.001686345, 0.001623529, 0.001025792, -0.0002718256, -9.816683, 0, 0, 30.80596, 1, 1, 760, 800
 104653955, 0, 0.001511748, 0.001424319, 0.001425755, -0.00130946, -0.0005193493, -9.817995, 0, 0, 30.80785, 1, 1, 1000, 1000
 104653955, 1, 0.001303232, 0.001515442, 0.001354696, -0.003195889, -0.001361446, -9.817842, 0, 0, 30.80785, 1, 1, 760, 800
 104693939, 0, 0.001526371, 0.001482119, 0.001495666, -0.0008763239, -0.0009431864, -9.817751, 0, 0, 30.80974, 1, 1, 1000, 1000
 104693939, 1, 0.001572909, 0.00151196, 0.001706959, 0.0001407509, -0.003098298, -9.815909, 0, 0, 30.80974, 1, 1, 760, 800
 104733923, 0, 0.001551014, 0.001552302, 0.001473778, -0.001974288, -0.0002338307, -9.817857, 0, 0, 30.81163, 1, 1, 1000, 1000
 104733923, 1, 0.001326892, 0.001491219, 0.001763884, -0.0002462651, -0.000767479, -9.818666, 0, 0, 30.81163, 1, 1, 760, 800
 104773907, 0, 0.00146332, 0.001508433, 0.001482736, -0.001673473, -0.0006392894, -9.816723, 0, 0, 30.81353, 1, 1, 1000, 1000
 104773907, 1, 0.001450133, 0.001441138, 0.001505955, -0.003238581, -0.0006654227, -9.818319, 0, 0, 30.81353, 1, 1, 760, 800
 104813891, 0, 0.00152163, 0.001497302, 0.001530553, -0.001279387, -0.001772938, -9.816936, 0, 0, 30.81542, 1, 1, 1000, 1000
 104813891, 1, 0.001455763, 0.001669711, 0.001555189, 0.0007866948, 0.0002646449, -9.815853, 0, 0, 30.81542, 1, 1, 760, 800
 104853875, 0, 0.001526767, 0.001494032, 0.001532184, -0.0009246709, -0.001453592, -9.816889, 0, 0, 30.81731, 1, 1, 1000, 1000
 104853875, 1, 0.001547117, 0.00145052, 0.001695471, 0.0005396572, -0.002598478, -9.817521, 0, 0, 30.81731, 1, 1, 760, 800
 104893859, 0, 0.001523893, 0.001486022, 0.001517186, -0.001415337, -0.0002108872, -9.818027, 0, 0, 30.8192, 1, 1, 1000, 1000
 104893859, 1, 0.001492114, 0.001536084, 0.001588971, -0.002258117, -0.001042641, -9.81799, 0, 0, 30.8192, 1, 1, 760, 800
 104933843, 0, 0.001551415, 0.001558691, 0.001587594, -0.0008486321, -0.0005999805, -9.818412, 0, 0, 30.82109, 1, 1, 1000, 1000
 104933843, 1, 0.001463076, 0.00164791, 0.001719447, -0.002152105, -0.0009254231, -9.815802, 0, 0, 30.82109, 1, 1, 760, 800
 104973827, 0, 0.001551569, 0.001469559, 0.00149174, -0.001110491, -0.0005065385, -9.817885, 0, 0, 30.82298, 1, 1, 1000, 1000
 104973827, 1, 0.001305498, 0.001525489, 0.00159526, -0.003582465, 0.0004531619, -9.817675, 0, 0, 30.82293, 1, 1, 760, 800
 105013811, 0, 0.001544702, 0.001531678, 0.001430067, -0.001023541, -0.001776446, -9.816537, 0, 0, 30.82487, 1, 1, 1000, 1000
 105013811, 1, 0.001656503, 0.001458277, 0.001407788, -0.002338301, -0.001495724, -9.817875, 0, 0, 30.82483, 1, 1, 760, 800
 105053795, 0, 0.001444664, 0.001488587, 0.00144976, 8.41282E-05, -0.0007753716, -9.817451, 0, 0, 30.82676, 1, 1, 1000, 1000
 105053795, 1, 0.001535136, 0.001656094, 0.001395927, -0.0001936623, -0.001919393, -9.817568, 0, 0, 30.82671, 1, 1, 760, 800
 105093779, 0, 0.001549552, 0.001533064, 0.001566076, -0.0005770527, -0.002022019, -9.817537, 0, 0, 30.82865, 1, 1, 1000, 1000
 105093779, 1, 0.00123534, 0.001391924, 0.001624344, 2.629418E-05, -0.00134517, -9.818609, 0, 0, 30.8286, 1, 1, 760, 800
 105133763, 0, 0.001528639, 0.001461913, 0.001447979, -0.0007594113, -0.0009277256, -9.81791, 0, 0, 30.83054, 1, 1, 1000, 1000
 105133763, 1, 0.00144129, 0.001523855, 0.001291301, 0.0006982783, 7.981281E-05, -9.821075, 0, 0, 30.83049, 1, 1, 760, 800
 105173747, 0, 0.001534633, 0.001474646, 0.001502477, -0.0008401971, -0.001142009, -9.818017, 0, 0, 30.83243, 1, 1, 1000, 1000
 105173747, 1, 0.001353871, 0.001711335, 0.001374601, -0.002379065, -0.0003301936, -9.81678, 0, 0, 30.83238, 1, 1, 760, 800
 105213731, 0, 0.001452247, 0.001513741, 0.001537453, -0.0002304258, -0.001741611, -9.817568, 0, 0, 30.83432, 1, 1, 1000, 1000
 105213731, 1, 0.001542029, 0.001322941, 0.001145529, -0.0006338743, 6.126805E-05, -9.815564, 0, 0, 30.83427, 1, 1, 760, 800
 105253715, 0, 0.001541168, 0.001484226, 0.001499991, -0.001592954, -0.001206794, -9.8172, 0, 0, 30.83621, 1, 1, 1000, 1000
 105253715, 1, 0.001544257, 0.001657305, 0.001552653, 0.001161401, -0.000804832, -9.816244, 0, 0, 30.83616, 1, 1, 760, 800
 105293699, 0, 0.001562733, 0.001520652, 0.001566814, -0.001816548, -0.001133416, -9.816743, 0, 0, 30.83809, 1, 1, 1000, 1000
 105293699, 1, 0.001492087, 0.001627185, 0.001444909, 0.001352427, 0.002110224, -9.815452, 0, 0, 30.83805, 1, 1, 760, 800
 105334516, 0, 0.001557967, 0.00150109, 0.001555295, -0.001330711, -0.001091426, -9.818056, 0, 0, 30.84003, 1, 1, 1000, 1000
 105334516, 1, 0.001215817, 0.00154693, 0.001549646, -0.001571943, -0.00237662, -9.815693, 0, 0, 30.84003, 1, 1, 760, 800
 105374500, 0, 0.00154869, 0.001497024, 0.001507903, -0.001357809, -0.001556187, -9.818199, 0, 0, 30.84192, 1, 1, 1000, 1000
 105374500, 1, 0.00154692, 0.001571449, 0.001640315, -0.0002833316, -0.001159949, -9.817307, 0, 0, 30.84192, 1, 1, 760, 800
 105414484, 0, 0.001456328, 0.001542853, 0.001515445, -0.001660087, -0.001393095, -9.818272, 0, 0, 30.84381, 1, 1, 1000, 1000
 105414484, 1, 0.001534297, 0.001331055, 0.001453639, -0.00091949, -0.001263517, -9.817478, 0, 0, 30.84381, 1, 1, 760, 800
 105454468, 0, 0.001543153, 0.001483269, 0.001546458, 0.0004358292, -0.0004306232, -9.817766, 0, 0, 30.84569, 1, 1, 1000, 1000
 105454468, 1, 0.001447172, 0.001789626, 0.001506445, -0.003199507, -0.0008248482, -9.81978, 0, 0, 30.84569, 1, 1, 760, 800
 105494452, 0, 0.001529591, 0.001499948, 0.001542822, -0.00118742, -0.00195759, -9.817329, 0, 0, 30.84758, 1, 1, 1000, 1000
 105494452, 1, 0.001447469, 0.001737796, 0.001662799, -0.001609663, -0.0006941746, -9.818642, 0, 0, 30.84758, 1, 1, 760, 800
 105534436, 0, 0.001545702, 0.00147066, 0.001510542, -0.0007353884, -0.0007831259, -9.816644, 0, 0, 30.84947, 1, 1, 1000, 1000
 105534436, 1, 0.001638383, 0.001663632, 0.00147336, -0.001410918, -0.0005197766, -9.817098, 0, 0, 30.84947, 1, 1, 760, 800
 105574420, 0, 0.001540817, 0.001499395, 0.001506279, 8.243188E-05, -0.001350492, -9.817468, 0, 0, 30.85135, 1, 1, 1000, 1000
 105574420, 1, 0.001471369, 0.001624565, 0.00143926, -0.0002854923, -0.0008189795, -9.818362, 0, 0, 30.85135, 1, 1, 760, 800
 105614404, 0, 0.001574381, 0.001509466, 0.001485241, -0.001990058, -0.0006320276, -9.817083, 0, 0, 30.85324, 1, 1, 1000, 1000
 105614404, 1, 0.001594644, 0.001488978, 0.001351947, 0.0006838766, -0.001929301, -9.816392, 0, 0, 30.85324, 1, 1, 760, 800
 105654388, 0, 0.00155159, 0.00148735, 0.001526903, -0.0004427768, -0.002970017, -9.818495, 0, 0, 30.85513, 1, 1, 1000, 1000
 105654388, 1, 0.001547601, 0.001611668, 0.00176061, 0.001193912, -0.001179846, -9.81704, 0, 0, 30.85513, 1, 1, 760, 800
 105694372, 0, 0.001523451, 0.001579723, 0.001521324, -0.0007749833, -0.0007050491, -9.817719, 0, 0, 30.85701, 1, 1, 1000, 1000
 105694372, 1, 0.001565033, 0.001510173, 0.001563994, 0.0001819923, -0.002108092, -9.819208, 0, 0, 30.85701, 1, 1, 760, 800
 105734356, 0, 0.001544209, 0.001493982, 0.001523444, -0.0008076926, -0.001796909, -9.817095, 0, 0, 30.8589, 1, 1, 1000, 1000
 105734356, 1, 0.001373216, 0.001669001, 0.001468328, -0.0004013912, -0.001093412, -9.817163, 0, 0, 30.8589, 1, 1, 760, 800
 105774340, 0, 0.001479597, 0.001536133, 0.001451258, -0.0007536755, -0.0006785083, -9.817319, 0, 0, 30.86078, 1, 1, 1000, 1000
 105774340, 1, 0.001674764, 0.001566209, 0.001344912, 0.00126789, -0.001014295, -9.817207, 0, 0, 30.86078, 1, 1, 760, 800
 105814324, 0, 0.001492401, 0.001525319, 0.001580355, -0.001529787, -0.001285541, -9.816911, 0, 0, 30.86267, 1, 1, 1000, 1000
 105814324, 1, 0.001485957, 0.001705135, 0.001492375, -9.746758E-05, -0.001155619, -9.818953, 0, 0, 30.86267, 1, 1, 760, 800
 105854308, 0, 0.001526937, 0.001497123, 0.001486841, -0.0008354997, -0.0007500954, -9.817488, 0, 0, 30.86455, 1, 1, 1000, 1000
 105854308, 1, 0.001545723, 0.001607669, 0.001510543, -0.001751433, -0.001404478, -9.817701, 0, 0, 30.86455, 1, 1, 760, 800
 105894292, 0, 0.001581058, 0.001517317, 0.001560571, -0.001017843, -0.0007472439, -9.817544, 0, 0, 30.86644, 1, 1, 1000, 1000
 105894292, 1, 0.001448403, 0.001709995, 0.001348344, -0.003730851, -0.0010092, -9.816669, 0, 0, 30.86644, 1, 1, 760, 800
 105934276, 0, 0.001512514, 0.001543414, 0.001543028, -0.0004812093, -0.001699724, -9.816997, 0, 0, 30.86832, 1, 1, 1000, 1000
 105934276, 1, 0.001549729, 0.001540173, 0.001558634, -0.000736783, 0.001368699, -9.81643, 0, 0, 30.86832, 1, 1, 760, 800
 105974260, 0, 0.001571912, 0.001542626, 0.001548572, -0.0008699674, -0.00127286, -9.818363, 0, 0, 30.87021, 1, 1, 1000, 1000
 105974260, 1, 0.001526352, 0.001567222, 0.001600923, -0.001181644, 0.0002098697, -9.81721, 0, 0, 30.87021, 1, 1, 760, 800
 106014244, 0, 0.001543778, 0.001550677, 0.001527329, -0.001771768, -0.0007938131, -9.816788, 0, 0, 30.87209, 1, 1, 1000, 1000
 106014244, 1, 0.001583886, 0.001453387, 0.00158526, -0.002448743, 0.000196406, -9.816666, 0, 0, 30.87209, 1, 1, 760, 800
 106054228, 0, 0.001507042, 0.001539189, 0.001513725, -0.001833844, 1.746155E-05, -9.818583, 0, 0, 30.87397, 1, 1, 1000, 1000
 106054228, 1, 0.001520749, 0.00146331, 0.001518127, 0.0003129616, -0.002103066, -9.818999, 0, 0, 30.87397, 1, 1, 760, 800
 106094212, 0, 0.001570053, 0.001549516, 0.001535797, -0.0009563996, -0.0008933148, -9.817654, 0, 0, 30.87586, 1, 1, 1000, 1000
 106094212, 1, 0.001576683, 0.001731125, 0.001502417, -0.002981924, -0.001084029, -9.815948, 0, 0, 30.87586, 1, 1, 760, 800
 106134196, 0, 0.001436878, 0.001508529, 0.00155728, -0.0006310093, -0.00131899, -9.817961, 0, 0, 30.87774, 1, 1, 1000, 1000
 106134196, 1, 0.001682728, 0.001507515, 0.001583653, 0.0003085005, -0.0002476519, -9.816067, 0, 0, 30.87774, 1, 1, 760, 800
 106174180, 0, 0.001505552, 0.00153521, 0.001538705, -0.0005817387, -0.0006314048, -9.81752, 0, 0, 30.87962, 1, 1, 1000, 1000
 106174180, 1, 0.001685594, 0.001572814, 0.001449138, 0.0001516287, -0.001582987, -9.817234, 0, 0, 30.87962, 1, 1, 760, 800
 106214164, 0, 0.001545678, 0.001523906, 0.001517564, -0.001048567, -0.0003971665, -9.817665, 0, 0, 30.88151, 1, 1, 1000, 1000
 106214164, 1, 0.001684419, 0.001616007, 0.00153754, -0.002214578, -0.002676276, -9.815137, 0, 0, 30.88151, 1, 1, 760, 800
 106254148, 0, 0.001543623, 0.001509153, 0.001504771, 0.0001444193, -0.001104342, -9.816934, 0, 0, 30.88339, 1, 1, 1000, 1000
 106254148, 1, 0.001433738, 0.001447786, 0.001644939, -0.0006666264, -0.002865141, -9.818744, 0, 0, 30.88339, 1, 1, 760, 800
 106294132, 0, 0.001543032, 0.001544028, 0.001495887, -0.001146102, -0.001452679, -9.929905, 0, 0, 30.88522, 1, 1, 1000, 1000
 106294132, 1, 0.001440572, 0.001567155, 0.00154894, 0.0001018225, -0.001767092, -9.932832, 0, 0, 30.88527, 1, 1, 760, 800
 106334116, 0, 0.001519909, 0.001492576, 0.001419932, -0.0007547754, -0.0008306821, -10.70169, 0, 0, 30.8871, 1, 1, 1000, 1000
 106334116, 1, 0.001483849, 0.001608604, 0.001469392, -0.001260423, -0.004132394, -10.70407, 0, 0, 30.88715, 1, 1, 760, 800
 106374100, 0, 0.00152926, 0.00150746, 0.001475037, -0.0006183328, -0.001092583, -11.05182, 0, 0, 30.88899, 1, 1, 1000, 1000
 106374100, 1, 0.001577724, 0.001734514, 0.001663037, 0.001092728, -0.001821331, -11.04677, 0, 0, 30.88903, 1, 1, 760, 800
 106414084, 0, 0.001537857, 0.001534925, 0.001462281, -0.0006308908, -0.001112984, -11.17146, 0, 0, 30.89087, 1, 1, 1000, 1000
 106414084, 1, 0.001541152, 0.001418171, 0.001554335, -0.002493426, -0.001819576, -11.16641, 0, 0, 30.89091, 1, 1, 760, 800
 106454068, 0, 0.001562899, 0.001570129, 0.001589883, -0.001070168, -0.00169297, -11.214, 0, 0, 30.89275, 1, 1, 1000, 1000
 106454068, 1, 0.001453206, 0.001537269, 0.001547248, -0.001118663, 0.0009137021, -11.20779, 0, 0, 30.8928, 1, 1, 760, 800
 106494052, 0, 0.001558176, 0.001546536, 0.001491433, -0.0008818541, 0.0003360841, -11.21931, 0, 0, 30.89463, 1, 1, 1000, 1000
 106494052, 1, 0.001624764, 0.001546894, 0.001669923, -0.001825368, -0.002071876, -11.20978, 0, 0, 30.89468, 1, 1, 760, 800
 106534036, 0, 0.001494806, 0.001495102, 0.00154364, -0.0005819931, -0.001480487, -11.20616, 0, 0, 30.89651, 1, 1, 1000, 1000
 106534036, 1, 0.001422829, 0.001641164, 0.001555226, -0.002321422, -0.001876502, -11.19659, 0, 0, 30.89656, 1, 1, 760, 800
 106574020, 0, 0.00152671, 0.001547723, 0.001454242, -0.0004549705, -0.00185948, -11.18417, 0, 0, 30.89839, 1, 1, 1000, 1000
 106574020, 1, 0.001325532, 0.001514055, 0.001323349, -0.001177261, 3.24791E-05, -11.17553, 0, 0, 30.89844, 1, 1, 760, 800
 106614004, 0, 0.001547432, 0.00153781, 0.001502144, 3.384252E-05, -0.001436516, -11.16124, 0, 0, 30.90027, 1, 1, 1000, 1000
 106614004, 1, 0.001592102, 0.001557267, 0.001562209, 0.0006837066, -0.00346231, -11.15213, 0, 0, 30.90032, 1, 1, 760, 800
 106653988, 0, 0.001544827, 0.001517266, 0.001550758, -0.0007611552, -0.001594974, -11.1367, 0, 0, 30.90215, 1, 1, 1000, 1000
 106653988, 1, 0.001453649, 0.001679872, 0.001594952, 0.0007138983, -0.0008187245, -11.12897, 0, 0, 30.90215, 1, 1, 760, 800
 106693972, 0, 0.001525233, 0.001512929, 0.001530381, -0.001657089, -0.001009075, -11.11728, 0, 0, 30.90403, 1, 1, 1000, 1000
 106693972, 1, 0.001578999, 0.001343056, 0.00151606, -0.0004939797, 0.001622191, -11.1079, 0, 0, 30.90403, 1, 1, 760, 800
 106733956, 0, -0.009894578, -0.009891471, 0.001507237, -9.329472E-05, -0.001453504, -11.81515, 0, 0, 30.90591, 1, 1, 1000, 1000
 106733956, 1, -0.01069358, -0.01061413, 0.00144156, -0.001580745, -0.001212158, -11.86253, 0, 0, 30.90591, 1, 1, 760, 800
 106773940, 0, -0.02939605, -0.02778818, 0.001486941, 8.982428E-05, -0.001329823, -15.40775, 0, 0, 30.90779, 1, 1, 1000, 1000
 106773940, 1, -0.02943694, -0.02770834, 0.001473101, 0.001800096, -0.002249663, -15.44395, 0, 0, 30.90779, 1, 1, 760, 800
 106813924, 0, -0.03533171, -0.03136851, 0.00132762, -0.005811598, 0.004202143, -16.15818, 0, 0, 30.90967, 1, 1, 1000, 1000
 106813924, 1, -0.03499077, -0.03119447, 0.001344004, -0.00633246, 0.004621078, -16.17537, 0, 0, 30.90967, 1, 1, 760, 800
 106853908, 0, -0.03017165, -0.02622632, 0.001313084, -0.01350117, 0.01267417, -15.56805, 0, 0, 30.91154, 1, 1, 1000, 1000
 106853908, 1, -0.03011419, -0.02610032, 0.001329918, -0.01243927, 0.01133089, -15.57382, 0, 0, 30.91154, 1, 1, 760, 800
 106893892, 0, -0.02050256, -0.01762029, 0.001163231, -0.01975839, 0.01901428, -14.54534, 0, 0, 30.91343, 1, 1, 1000, 1000
 106893892, 1, -0.02076923, -0.01753927, 0.001131357, -0.01970376, 0.01825929, -14.53956, 0, 0, 30.91343, 1, 1, 760, 800
 106933876, 0, -0.01183476, -0.01025466, 0.001102014, -0.02144186, 0.01984676, -13.40925, 0, 0, 30.9153, 1, 1, 1000, 1000
 106933876, 1, -0.01191432, -0.01002983, 0.0009938666, -0.02226858, 0.02072043, -13.40952, 0, 0, 30.9153, 1, 1, 760, 800
 106973860, 0, -0.005924004, -0.006024891, 0.0009675696, -0.0176117, 0.01924443, -12.33745, 0, 0, 30.91718, 1, 1, 1000, 1000
 106973860, 1, -0.006011599, -0.005966594, 0.0008149488, -0.01803746, 0.01934254, -12.34222, 0, 0, 30.91718, 1, 1, 760, 800
 107013844, 0, 0.0005702648, -0.000937256, 0.0009269852, -0.01473787, 0.01380062, -11.45442, 0, 0, 30.91906, 1, 1, 1000, 1000
 107013844, 1, 0.0007352488, -0.0009779903, 0.0008054982, -0.01488042, 0.01221817, -11.46005, 0, 0, 30.91906, 1, 1, 760, 800
 107053828, 0, 0.004991922, 0.004049154, 0.0008112068, -0.009986717, 0.008859632, -10.80374, 0, 0, 30.92093, 1, 1, 1000, 1000
 107053828, 1, 0.005005669, 0.004133705, 0.000666609, -0.0100135, 0.006821601, -10.80825, 0, 0, 30.92089, 1, 1, 760, 800
 107093812, 0, 0.00919695, 0.007643412, 0.0008187483, -0.005788368, 0.003088181, -10.40956, 0, 0, 30.92281, 1, 1, 1000, 1000
 107093812, 1, 0.009135348, 0.00759694, 0.000779562, -0.006385334, 0.004417111, -10.41477, 0, 0, 30.92277, 1, 1, 760, 800
 107133796, 0, 0.01284485, 0.01089892, 0.0007839626, -0.003843332, 0.00253947, -10.21701, 0, 0, 30.92469, 1, 1, 1000, 1000
 107133796, 1, 0.0128519, 0.0107884, 0.0007392846, -0.003784334, 0.002170351, -10.22336, 0, 0, 30.92464, 1, 1, 760, 800
 107173780, 0, 0.01316762, 0.01338054, 0.0007407868, -0.001470859, 0.0008904177, -10.1923, 0, 0, 30.92657, 1, 1, 1000, 1000
 107173780, 1, 0.01312814, 0.01341886, 0.0005931719, -0.001444033, 0.002575929, -10.19798, 0, 0, 30.92652, 1, 1, 760, 800
 107213764, 0, 0.0140575, 0.01263461, 0.0006692685, -0.001841225, 0.0008093721, -10.27117, 0, 0, 30.92844, 1, 1, 1000, 1000
 107213764, 1, 0.01399982, 0.01282644, 0.0007552138, -0.0002881578, -0.0005248208, -10.27275, 0, 0, 30.92839, 1, 1, 760, 800
 107253748, 0, 0.01523757, 0.0134463, 0.0005861167, -0.002519877, 0.0005957698, -10.39912, 0, 0, 30.93032, 1, 1, 1000, 1000
 107253748, 1, 0.01513397, 0.01346378, 0.0005097812, -0.0017908, 0.001306457, -10.40094, 0, 0, 30.93027, 1, 1, 760, 800
 107293732, 0, 0.01546725, 0.01482212, 0.0005816665, -0.00323856, 0.001592014, -10.54999, 0, 0, 30.93219, 1, 1, 1000, 1000
 107293732, 1, 0.01553868, 0.01483692, 0.0006480397, -0.00303885, 0.001747436, -10.54907, 0, 0, 30.93215, 1, 1, 760, 800
 107333716, 0, 0.01373185, 0.01336382, 0.0005214462, -0.005509877, 0.002750595, -10.68363, 0, 0, 30.93407, 1, 1, 1000, 1000
 107333716, 1, 0.01364442, 0.01336536, 0.0004947153, -0.004838285, 0.005298101, -10.68217, 0, 0, 30.93402, 1, 1, 760, 800
 107373700, 0, 0.01348379, 0.0131424, 0.000543321, -0.006598204, 0.004340871, -10.79742, 0, 0, 30.93594, 1, 1, 1000, 1000
 107373700, 1, 0.01343101, 0.01326856, 0.0006349754, -0.007066038, 0.005015564, -10.79525, 0, 0, 30.9359, 1, 1, 760, 800
 107414517, 0, 0.01117583, 0.01025176, 0.0005367475, -0.005563811, 0.005579378, -10.86169, 0, 0, 30.93787, 1, 1, 1000, 1000
 107414517, 1, 0.01113062, 0.01029695, 0.0005404978, -0.005197007, 0.003431258, -10.85993, 0, 0, 30.93787, 1, 1, 760, 800
 107454501, 0, 0.01041996, 0.009041341, 0.0005519751, -0.006200645, 0.005471991, -10.89045, 0, 0, 30.93974, 1, 1, 1000, 1000
 107454501, 1, 0.01032463, 0.009154252, 0.0005166493, -0.006631947, 0.005303605, -10.89055, 0, 0, 30.93974, 1, 1, 760, 800
 107494485, 0, 0.01090843, 0.009321543, 0.0006485231, -0.007362517, 0.007173378, -10.88538, 0, 0, 30.94162, 1, 1, 1000, 1000
 107494485, 1, 0.01082496, 0.009240251, 0.0007667099, -0.007352153, 0.006437729, -10.8848, 0, 0, 30.94162, 1, 1, 760, 800
 107534469, 0, 0.009573043, 0.008045187, 0.0006609613, -0.008662495, 0.00624183, -10.85808, 0, 0, 30.94349, 1, 1, 1000, 1000
 107534469, 1, 0.009654256, 0.007932985, 0.0004926082, -0.007466848, 0.007120283, -10.85921, 0, 0, 30.94349, 1, 1, 760, 800
 107574453, 0, 0.007693122, 0.007146209, 0.0006959478, -0.007790127, 0.006252008, -10.81112, 0, 0, 30.94536, 1, 1, 1000, 1000
 107574453, 1, 0.007649065, 0.007051147, 0.0006342732, -0.008391457, 0.00778368, -10.81206, 0, 0, 30.94536, 1, 1, 760, 800
 107614437, 0, 0.008733673, 0.006725823, 0.0006618716, -0.009135114, 0.006404367, -10.76086, 0, 0, 30.94724, 1, 1, 1000, 1000
 107614437, 1, 0.008837884, 0.006795864, 0.000699451, -0.007907044, 0.008546305, -10.76325, 0, 0, 30.94724, 1, 1, 760, 800
 107654421, 0, 0.006593816, 0.004512026, 0.0007768488, -0.00902894, 0.00605681, -10.708, 0, 0, 30.94911, 1, 1, 1000, 1000
 107654421, 1, 0.006374381, 0.004449386, 0.0006703906, -0.006991662, 0.005438502, -10.70588, 0, 0, 30.94911, 1, 1, 760, 800
 107694405, 0, 0.009065729, 0.007212888, 0.0008817907, -0.007939249, 0.007408169, -10.65604, 0, 0, 30.95098, 1, 1, 1000, 1000
 107694405, 1, 0.009087843, 0.007381907, 0.0008674901, -0.008547938, 0.0103501, -10.65739, 0, 0, 30.95098, 1, 1, 760, 800
 107734389, 0, 0.008818299, 0.008299632, 0.0009023787, -0.008092493, 0.006665741, -10.61478, 0, 0, 30.95286, 1, 1, 1000, 1000
 107734389, 1, 0.008354135, 0.0085841, 0.000849169, -0.006134961, 0.006937827, -10.61419, 0, 0, 30.95286, 1, 1, 760, 800
 107774373, 0, 0.007313247, 0.007536054, 0.001037029, -0.008860914, 0.005683806, -10.58367, 0, 0, 30.95473, 1, 1, 1000, 1000
 107774373, 1, 0.007420202, 0.007512351, 0.001017842, -0.007890241, 0.006145792, -10.58504, 0, 0, 30.95473, 1, 1, 760, 800
 107814357, 0, 0.00295028, 0.00795228, 0.001090664, -0.007862025, 0.007168911, -10.56477, 0, 0, 30.9566, 1, 1, 1000, 1000
 107814357, 1, 0.002893444, 0.007847446, 0.001114761, -0.007450305, 0.005433274, -10.56632, 0, 0, 30.9566, 1, 1, 760, 800
 107854341, 0, 0.003092929, 0.007990669, 0.001072589, -0.007927065, 0.00668474, -10.53661, 0, 0, 30.95848, 1, 1, 1000, 1000
 107854341, 1, 0.003070995, 0.007881836, 0.001111383, -0.0111942, 0.00642304, -10.53545, 0, 0, 30.95848, 1, 1, 760, 800
 107894325, 0, 0.005187445, 0.005050416, 0.001199198, -0.008734587, 0.006574814, -10.53326, 0, 0, 30.96035, 1, 1, 1000, 1000
 107894325, 1, 0.005119171, 0.005047994, 0.001177897, -0.008160959, 0.009576274, -10.53433, 0, 0, 30.96035, 1, 1, 760, 800
 107934309, 0, 0.006035894, 0.007788743, 0.001278081, -0.00984957, 0.007523901, -10.52554, 0, 0, 30.96222, 1, 1, 1000, 1000
 107934309, 1, 0.005960877, 0.007753341, 0.001170061, -0.008079804, 0.00678847, -10.52392, 0, 0, 30.96222, 1, 1, 760, 800
 107974293, 0, 0.005489254, 0.002846135, 0.001307407, -0.008192034, 0.006994922, -10.46327, 0, 0, 30.96409, 1, 1, 1000, 1000
 107974293, 1, 0.005527033, 0.002812633, 0.001467174, -0.006726377, 0.006817861, -10.46584, 0, 0, 30.96409, 1, 1, 760, 800
 108014277, 0, 0.004700763, 0.002685062, 0.001506004, -0.007268257, 0.006882139, -10.36737, 0, 0, 30.96596, 1, 1, 1000, 1000
 108014277, 1, 0.004575889, 0.002723159, 0.001546093, -0.009480008, 0.003923449, -10.36903, 0, 0, 30.96596, 1, 1, 760, 800
 108054261, 0, 0.004210218, 0.002732625, 0.00149801, -0.008529812, 0.006498282, -10.26609, 0, 0, 30.96783, 1, 1, 1000, 1000
 108054261, 1, 0.004283664, 0.002608406, 0.0014606, -0.007390652, 0.00810289, -10.26831, 0, 0, 30.96783, 1, 1, 760, 800
 108094245, 0, 0.005586938, 0.004047516, 0.001546363, -0.007045041, 0.00557868, -10.17617, 0, 0, 30.9697, 1, 1, 1000, 1000
 108094245, 1, 0.005539889, 0.004171668, 0.001498807, -0.007481177, 0.005142983, -10.17686, 0, 0, 30.9697, 1, 1, 760, 800
 108134229, 0, 0.005223004, 0.003498082, 0.001551547, -0.008218216, 0.005874727, -10.0867, 0, 0, 30.97158, 1, 1, 1000, 1000
 108134229, 1, 0.005173213, 0.003553313, 0.001261879, -0.007448058, 0.008527531, -10.08766, 0, 0, 30.97158, 1, 1, 760, 800
 108174213, 0, 0.003904532, 0.001931949, 0.001590171, -0.007145708, 0.006308131, -10.00924, 0, 0, 30.97345, 1, 1, 1000, 1000
 108174213, 1, 0.004017652, 0.001991416, 0.001683198, -0.006183513, 0.006569386, -10.0121, 0, 0, 30.97345, 1, 1, 760, 800
 108214197, 0, 0.003361525, 0.001981908, 0.001681287, -0.006326458, 0.005514689, -9.939763, 0, 0, 30.97532, 1, 1, 1000, 1000
 108214197, 1, 0.003445815, 0.001974482, 0.001675917, -0.007140048, 0.004816041, -9.940533, 0, 0, 30.97532, 1, 1, 760, 800
 108254181, 0, 0.003640445, 0.002289037, 0.0016335, -0.006174627, 0.005579745, -9.873766, 0, 0, 30.97719, 1, 1, 1000, 1000
 108254181, 1, 0.003567141, 0.002390459, 0.00166118, -0.008136703, 0.006109177, -9.877738, 0, 0, 30.97719, 1, 1, 760, 800
 108294165, 0, 0.004958121, 0.003469694, 0.001538849, -0.006431172, 0.004988553, -9.820587, 0, 0, 30.97906, 1, 1, 1000, 1000
 108294165, 1, 0.004995578, 0.003713105, 0.001575009, -0.006023458, 0.003945662, -9.822721, 0, 0, 30.97906, 1, 1, 760, 800
 108334149, 0, 0.003496207, 0.004637868, 0.001545483, -0.00696505, 0.004206583, -9.768702, 0, 0, 30.98092, 1, 1, 1000, 1000
 108334149, 1, 0.00363525, 0.004747681, 0.001627235, -0.005943607, 0.00453346, -9.77141, 0, 0, 30.98092, 1, 1, 760, 800
 108374133, 0, 0.0007890849, 0.004184286, 0.001548868, -0.006291191, 0.003973234, -9.726536, 0, 0, 30.98275, 1, 1, 1000, 1000
 108374133, 1, 0.0005411785, 0.004215533, 0.001313549, -0.004898247, 0.004682193, -9.723136, 0, 0, 30.98279, 1, 1, 760, 800
 108414117, 0, 0.001960882, -0.0001007373, 0.001455598, -0.005549151, 0.003515738, -9.690913, 0, 0, 30.98462, 1, 1, 1000, 1000
 108414117, 1, 0.002059765, -5.932689E-05, 0.001538933, -0.006514577, 0.003133505, -9.692509, 0, 0, 30.98466, 1, 1, 760, 800
 108454101, 0, 0.004966461, 0.003308562, 0.001499096, -0.006439958, 0.00342739, -9.660971, 0, 0, 30.98648, 1, 1, 1000, 1000
 108454101, 1, 0.004934503, 0.003357769, 0.001421881, -0.006857095, 0.003825405, -9.661829, 0, 0, 30.98653, 1, 1, 760, 800
 108494085, 0, 0.002900344, 0.004405931, 0.00133286, -0.006916503, 0.004767018, -9.633112, 0, 0, 30.98835, 1, 1, 1000, 1000
 108494085, 1, 0.002828027, 0.004510552, 0.001471881, -0.003784254, 0.005936167, -9.635638, 0, 0, 30.9884, 1, 1, 760, 800
 108534069, 0, 0.001825973, 0.002668355, 0.00122617, -0.006015162, 0.003282137, -9.619534, 0, 0, 30.99022, 1, 1, 1000, 1000
 108534069, 1, 0.001787105, 0.002632343, 0.001387149, -0.006021571, 0.004357713, -9.615651, 0, 0, 30.99027, 1, 1, 760, 800
 108574053, 0, 0.002877198, 0.002659393, 0.001323761, -0.006581708, 0.003857463, -9.598072, 0, 0, 30.99209, 1, 1, 1000, 1000
 108574053, 1, 0.002999854, 0.00277096, 0.00127425, -0.005634514, 0.005874352, -9.596411, 0, 0, 30.99213, 1, 1, 760, 800
 108614037, 0, -0.0003997701, -0.0007201346, 0.001154348, -0.00633837, 0.003162729, -9.582872, 0, 0, 30.99396, 1, 1, 1000, 1000
 108614037, 1, -0.0005457246, -0.0007809479, 0.001188428, -0.003985967, 0.004172752, -9.581884, 0, 0, 30.994, 1, 1, 760, 800
 108654021, 0, 0.001929633, 0.00281069, 0.001128002, -0.005532925, 0.003210303, -9.572701, 0, 0, 30.99582, 1, 1, 1000, 1000
 108654021, 1, 0.001816751, 0.002821266, 0.001045472, -0.003667396, 0.003811735, -9.573458, 0, 0, 30.99587, 1, 1, 760, 800
 108694005, 0, 0.001868253, 0.002657964, 0.001108433, -0.004957126, 0.002618522, -9.578451, 0, 0, 30.99769, 1, 1, 1000, 1000
 108694005, 1, 0.001964346, 0.002779899, 0.001226109, -0.003544379, 0.001374271, -9.57623, 0, 0, 30.99774, 1, 1, 760, 800
 108733989, 0, 0.002806867, 0.001194318, 0.001016424, -0.003404874, 0.003115477, -9.551246, 0, 0, 30.99956, 1, 1, 1000, 1000
 108733989, 1, 0.002629268, 0.001183552, 0.0009880771, -0.003340024, 0.004021255, -9.550855, 0, 0, 30.99956, 1, 1, 760, 800
 108773973, 0, -0.0002993114, 0.003691255, 0.0009779367, -0.003959736, 0.002199911, -9.555929, 0, 0, 31.00142, 1, 1, 1000, 1000
 108773973, 1, -0.0001958793, 0.003742648, 0.0009595457, -0.001378391, 0.0008502361, -9.556477, 0, 0, 31.00142, 1, 1, 760, 800
 108813957, 0, -3.885609E-05, 0.003534837, 0.001023595, -0.004880324, 0.001279542, -9.560995, 0, 0, 31.00329, 1, 1, 1000, 1000
 108813957, 1, 5.515106E-05, 0.003536994, 0.0009477924, -0.003165692, 0.0003336548, -9.56053, 0, 0, 31.00329, 1, 1, 760, 800
 108853941, 0, 4.858074E-06, 0.003438367, 0.001051809, -0.00336994, 0.002048958, -9.565302, 0, 0, 31.00516, 1, 1, 1000, 1000
 108853941, 1, 3.4567E-05, 0.003458169, 0.001125835, -0.004590633, 0.00375634, -9.564559, 0, 0, 31.00516, 1, 1, 760, 800
 108893925, 0, 8.605574E-05, 0.003389376, 0.001010402, -0.003430632, 0.001467955, -9.570845, 0, 0, 31.00702, 1, 1, 1000, 1000
 108893925, 1, -9.254341E-06, 0.003453894, 0.0009291265, -0.004322048, 0.001304034, -9.572909, 0, 0, 31.00702, 1, 1, 760, 800
 108933909, 0, 0.0001371734, 0.003355805, 0.001055322, -0.004794928, 0.001100715, -9.574284, 0, 0, 31.00889, 1, 1, 1000, 1000
 108933909, 1, 8.99723E-05, 0.003317294, 0.001077549, -0.003865261, 0.001590338, -9.576193, 0, 0, 31.00889, 1, 1, 760, 800
 108973893, 0, 0.0001385576, 0.003306514, 0.001023504, -0.003793692, 0.001427336, -9.580201, 0, 0, 31.01075, 1, 1, 1000, 1000
 108973893, 1, 1.851332E-05, 0.003353748, 0.001069658, -0.004901545, 0.0008949942, -9.580956, 0, 0, 31.01075, 1, 1, 760, 800
 109013877, 0, 0.0001692563, 0.0001855903, 0.001011024, -0.002620025, 0.0007925421, -9.584689, 0, 0, 31.01262, 1, 1, 1000, 1000
 109013877, 1, 7.016739E-05, 0.0002938383, 0.001005409, -0.002676056, -0.001388796, -9.584118, 0, 0, 31.01262, 1, 1, 760, 800
 109053861, 0, 0.0002345765, -0.001464658, 0.0009631478, -0.002047647, 0.0003235045, -9.589074, 0, 0, 31.01448, 1, 1, 1000, 1000
 109053861, 1, 0.000174864, -0.001489741, 0.0009094871, -0.001878501, 0.00351666, -9.59083, 0, 0, 31.01448, 1, 1, 760, 800
 109093845, 0, 0.001535873, -0.003182657, 0.0009320303, -0.002779693, 0.0002846493, -9.618599, 0, 0, 31.01635, 1, 1, 1000, 1000
 109093845, 1, 0.001550237, -0.003244357, 0.0009586539, -0.001952506, 0.000795377, -9.618237, 0, 0, 31.01635, 1, 1, 760, 800
 109133829, 0, -0.001049019, -0.00418144, 0.0009825226, -0.001873271, 6.496572E-05, -9.623693, 0, 0, 31.01821, 1, 1, 1000, 1000
 109133829, 1, -0.0008556294, -0.004050851, 0.001088427, -0.001785189, 0.0002105557, -9.621992, 0, 0, 31.01817, 1, 1, 760, 800
 109173813, 0, 0.0004211537, -0.001460756, 0.001178713, -0.001920961, -0.0007607209, -9.631799, 0, 0, 31.02008, 1, 1, 1000, 1000
 109173813, 1, 0.0003823432, -0.001448746, 0.00107513, -0.0004147436, 0.0008976941, -9.633792, 0, 0, 31.02003, 1, 1, 760, 800
 109213797, 0, 0.0004456599, -0.002243216, 0.001184023, -0.002459806, -0.000381951, -9.637104, 0, 0, 31.02194, 1, 1, 1000, 1000
 109213797, 1, 0.0006260729, -0.002099018, 0.001344092, -5.711292E-06, -0.001164646, -9.63961, 0, 0, 31.02189, 1, 1, 760, 800
 109253781, 0, 0.0004222289, -0.002078868, 0.001169154, -0.001094827, -3.947156E-05, -9.640615, 0, 0, 31.0238, 1, 1, 1000, 1000
 109253781, 1, 0.0004447567, -0.001966178, 0.001057654, 9.159613E-05, -0.002029142, -9.64114, 0, 0, 31.02376, 1, 1, 760, 800
 109293765, 0, 0.0004670795, -0.001317722, 0.001130628, -0.00186979, -0.00187878, -9.667374, 0, 0, 31.02567, 1, 1, 1000, 1000
 109293765, 1, 0.0004193867, -0.001039132, 0.0009670237, -0.002818422, -0.001739987, -9.665814, 0, 0, 31.02562, 1, 1, 760, 800
 109333749, 0, 0.0002268205, 0.001012816, 0.00113244, -0.001543464, 0.0002132477, -9.671124, 0, 0, 31.02753, 1, 1, 1000, 1000
 109333749, 1, 0.0001768236, 0.0009152989, 0.001259111, -0.0002042754, -0.0008856544, -9.672147, 0, 0, 31.02748, 1, 1, 760, 800
 109373733, 0, -0.002516079, -0.0009839615, 0.001093101, -0.00128596, -0.000586848, -9.683739, 0, 0, 31.02939, 1, 1, 1000, 1000
 109373733, 1, -0.002414105, -0.001017401, 0.001171693, -0.002121866, -0.0005692035, -9.684551, 0, 0, 31.02935, 1, 1, 760, 800
 109413717, 0, -0.002274683, -0.000840441, 0.001160844, -0.0008989658, -0.002274106, -9.686096, 0, 0, 31.03126, 1, 1, 1000, 1000
 109413717, 1, -0.002154628, -0.0008607364, 0.001179671, 0.0003174055, 0.00027503, -9.685374, 0, 0, 31.03121, 1, 1, 760, 800
 109453701, 0, 0.001384527, 0.002781408, 0.001197971, -0.00187729, -0.001083647, -9.703146, 0, 0, 31.03312, 1, 1, 1000, 1000
 109453701, 1, 0.001344816, 0.003006467, 0.001038853, -0.001155209, -0.001848812, -9.703016, 0, 0, 31.03307, 1, 1, 760, 800
 109494518, 0, 0.001719257, 0.002155927, 0.00116919, -0.0002527774, -0.001040398, -9.717507, 0, 0, 31.03503, 1, 1, 1000, 1000
 109494518, 1, 0.001654146, 0.002159664, 0.001331627, 0.0001622498, -0.003204542, -9.715733, 0, 0, 31.03503, 1, 1, 760, 800
 109534502, 0, 0.001799472, -0.0002325903, 0.001266361, -0.000412394, -0.0004567522, -9.72658, 0, 0, 31.03689, 1, 1, 1000, 1000
 109534502, 1, 0.001725616, -4.931938E-05, 0.00140207, -0.002603369, -0.002291751, -9.724817, 0, 0, 31.03689, 1, 1, 760, 800
 109574486, 0, 0.001858061, -5.149905E-05, 0.001303297, 0.0001219642, -0.00152144, -9.727904, 0, 0, 31.03875, 1, 1, 1000, 1000
 109574486, 1, 0.001794388, 2.426354E-05, 0.001370451, -0.001394946, -0.001430986, -9.727962, 0, 0, 31.03875, 1, 1, 760, 800
 109614470, 0, 0.001835337, -3.80247E-05, 0.00130232, -0.000266063, -0.002948204, -9.728212, 0, 0, 31.04061, 1, 1, 1000, 1000
 109614470, 1, 0.001930023, 5.607882E-05, 0.001439381, -0.00117614, 0.0008978874, -9.728651, 0, 0, 31.04061, 1, 1, 760, 800
 109654454, 0, 0.001784852, 3.299642E-05, 0.001280711, -0.0001081553, -0.002171146, -9.731438, 0, 0, 31.04247, 1, 1, 1000, 1000
 109654454, 1, 0.001625123, -0.0001560483, 0.001226136, -0.0001212426, -0.002341095, -9.730657, 0, 0, 31.04247, 1, 1, 760, 800
 109694438, 0, -0.0001446917, 0.001558349, 0.001370693, 0.00114418, -0.001914749, -9.749254, 0, 0, 31.04433, 1, 1, 1000, 1000
 109694438, 1, -8.557989E-05, 0.001691002, 0.001332566, 0.0005754331, -0.001089923, -9.746255, 0, 0, 31.04433, 1, 1, 760, 800
 109734422, 0, -0.001303505, 0.002040434, 0.001010172, 8.438309E-05, -0.003010323, -9.75988, 0, 0, 31.0462, 1, 1, 1000, 1000
 109734422, 1, -0.00153615, 0.002141011, 0.001104093, 8.00425E-05, -0.00139906, -9.759011, 0, 0, 31.0462, 1, 1, 760, 800
 109774406, 0, -0.002735467, -0.0007287124, 0.000775174, 0.001477028, -0.001490065, -9.754812, 0, 0, 31.04805, 1, 1, 1000, 1000
 109774406, 1, -0.002657758, -0.0006886686, 0.0007690081, 0.001771534, -0.003387545, -9.757002, 0, 0, 31.04805, 1, 1, 760, 800
 109814390, 0, 0.0006205147, 0.002273253, 0.0007101335, 0.0005326673, -0.002629794, -9.784035, 0, 0, 31.04992, 1, 1, 1000, 1000
 109814390, 1, 0.0008655728, 0.002397343, 0.0006067705, 0.00440346, -0.001633699, -9.783383, 0, 0, 31.04992, 1, 1, 760, 800
 109854374, 0, 0.001530374, 0.00200254, 0.0006992715, -0.0008500192, -0.002404034, -9.879573, 0, 0, 31.05177, 1, 1, 1000, 1000
 109854374, 1, 0.001402279, 0.002140339, 0.0004786091, 8.964646E-05, -0.002380744, -9.879425, 0, 0, 31.05177, 1, 1, 760, 800
 109894358, 0, 0.0008617418, 0.001955234, 0.0008088343, 0.001238542, -0.002586321, -9.972952, 0, 0, 31.05363, 1, 1, 1000, 1000
 109894358, 1, 0.0009456835, 0.002087212, 0.0007727778, 0.001378045, -0.002382933, -9.975054, 0, 0, 31.05363, 1, 1, 760, 800
 109934342, 0, -0.001967542, 0.0004748841, 0.000833005, 0.0005144362, -0.002865236, -9.998464, 0, 0, 31.05549, 1, 1, 1000, 1000
 109934342, 1, -0.002075522, 0.0003517057, 0.0007636919, 0.001224862, -0.002590975, -9.998878, 0, 0, 31.05549, 1, 1, 760, 800
 109974326, 0, -0.003842844, -0.003254545, 0.0009734146, 0.001358156, -0.003073217, -9.965197, 0, 0, 31.05735, 1, 1, 1000, 1000
 109974326, 1, -0.003934751, -0.003324258, 0.0009747862, 0.001513387, -0.002221698, -9.966914, 0, 0, 31.05735, 1, 1, 760, 800
 110014310, 0, -0.003567012, -0.002693807, 0.0009201695, 0.0006948552, -0.00294502, -9.958488, 0, 0, 31.05921, 1, 1, 1000, 1000
 110014310, 1, -0.003530008, -0.002747034, 0.00106391, 0.002084522, 0.0002757627, -9.959269, 0, 0, 31.05921, 1, 1, 760, 800
 110054294, 0, 0.00156288, -0.0006026769, 0.001028497, 0.002063714, -0.003500419, -9.922273, 0, 0, 31.06107, 1, 1, 1000, 1000
 110054294, 1, 0.001526461, -0.0004992202, 0.0008804235, 0.001198876, -0.002465933, -9.920517, 0, 0, 31.06107, 1, 1, 760, 800
 110094278, 0, 0.001401857, 0.001940146, 0.001021093, 0.0009677855, -0.002219245, -9.915402, 0, 0, 31.06293, 1, 1, 1000, 1000
 110094278, 1, 0.00139864, 0.001821017, 0.001043536, -0.0003144768, -0.004456305, -9.916659, 0, 0, 31.06293, 1, 1, 760, 800
 110134262, 0, 0.004476673, 0.0003113426, 0.001024, 0.001223021, -0.003422359, -9.884659, 0, 0, 31.06479, 1, 1, 1000, 1000
 110134262, 1, 0.004679446, 0.0003296577, 0.0012634, 0.002466881, -0.003725014, -9.88589, 0, 0, 31.06479, 1, 1, 760, 800
 110174246, 0, 0.004253404, 0.0007800328, 0.0009591987, 0.0012603, -0.002421424, -9.880767, 0, 0, 31.06665, 1, 1, 1000, 1000
 110174246, 1, 0.004201214, 0.0008537993, 0.0008888437, 0.0002985981, -0.002966283, -9.881674, 0, 0, 31.06665, 1, 1, 760, 800
 110214230, 0, 0.00084899, -0.0002194038, 0.00104917, 0.001460386, -0.001922539, -9.850306, 0, 0, 31.0685, 1, 1, 1000, 1000
 110214230, 1, 0.0006857921, -4.12233E-05, 0.001026334, 0.003471419, -0.004138829, -9.8515, 0, 0, 31.0685, 1, 1, 760, 800
 110254214, 0, 0.001256384, -0.0005172534, 0.00106406, 0.00158776, -0.003575622, -9.8492, 0, 0, 31.07036, 1, 1, 1000, 1000
 110254214, 1, 0.00111441, -0.0006449567, 0.001045326, 0.000770181, -0.001554366, -9.849861, 0, 0, 31.07036, 1, 1, 760, 800
 110294198, 0, 0.002807728, 0.001265264, 0.001228461, 0.001175978, -0.003098872, -9.830175, 0, 0, 31.07222, 1, 1, 1000, 1000
 110294198, 1, 0.002580115, 0.001421236, 0.001270473, 0.001038626, -0.003211156, -9.830956, 0, 0, 31.07222, 1, 1, 760, 800
 110334182, 0, 0.003210336, 0.00353815, 0.001281699, 0.002181124, -0.003037874, -9.811727, 0, 0, 31.07407, 1, 1, 1000, 1000
 110334182, 1, 0.003156839, 0.00365349, 0.00128984, 0.001042853, -0.003425304, -9.810799, 0, 0, 31.07407, 1, 1, 760, 800
 110374166, 0, 0.00317682, 0.003394389, 0.001235901, 0.001552649, -0.003479082, -9.814565, 0, 0, 31.07593, 1, 1, 1000, 1000
 110374166, 1, 0.003073347, 0.003427364, 0.001433476, 0.002544684, -0.002022928, -9.812843, 0, 0, 31.07593, 1, 1, 760, 800
 110414150, 0, -0.001729321, -0.0008748535, 0.001214094, 0.001799785, -0.003341434, -9.795363, 0, 0, 31.07779, 1, 1, 1000, 1000
 110414150, 1, -0.001778453, -0.0008158565, 0.00131532, 0.003579746, -0.003958735, -9.796381, 0, 0, 31.07779, 1, 1, 760, 800
 110454134, 0, 0.0004880314, 0.003533085, 0.001350756, 0.0004753679, -0.003125906, -9.78663, 0, 0, 31.0796, 1, 1, 1000, 1000
 110454134, 1, 0.0001858885, 0.003544574, 0.001518011, 0.003156658, -0.003102652, -9.786822, 0, 0, 31.07964, 1, 1, 760, 800
 110494118, 0, -0.0007986065, 0.002329114, 0.001364035, 0.0007136922, -0.002776484, -9.782053, 0, 0, 31.08145, 1, 1, 1000, 1000
 110494118, 1, -0.0008376619, 0.002485964, 0.001522431, 0.002420215, -0.003183068, -9.780155, 0, 0, 31.0815, 1, 1, 760, 800
 110534102, 0, -0.0007086067, 0.002292766, 0.001355062, 0.001926122, -0.004487955, -9.782253, 0, 0, 31.08331, 1, 1, 1000, 1000
 110534102, 1, -0.0006782475, 0.002362583, 0.001350537, 0.002192407, -0.003701216, -9.782022, 0, 0, 31.08335, 1, 1, 760, 800
 110574086, 0, -0.0006275504, 0.002291394, 0.001323553, 0.001473928, -0.003805825, -9.78249, 0, 0, 31.08517, 1, 1, 1000, 1000
 110574086, 1, -0.0004154739, 0.002493207, 0.001495642, 0.003428434, -0.004166229, -9.781653, 0, 0, 31.08521, 1, 1, 760, 800
 110614070, 0, 0.0004891735, -0.001409974, 0.001395622, 0.000845548, -0.003440949, -9.775417, 0, 0, 31.08702, 1, 1, 1000, 1000
 110614070, 1, 0.0002507246, -0.001330158, 0.001536589, 0.003101757, -0.003151523, -9.776099, 0, 0, 31.08707, 1, 1, 760, 800
 110654054, 0, 0.003037958, 0.0005241546, 0.001581294, 0.00113184, -0.004306124, -9.758719, 0, 0, 31.08887, 1, 1, 1000, 1000
 110654054, 1, 0.002894706, 0.0004024865, 0.001557006, 0.002584476, -0.003242434, -9.760145, 0, 0, 31.08892, 1, 1, 760, 800
 110694038, 0, 0.006036541, 0.0009718852, 0.001691878, 0.002609067, -0.004058886, -9.760763, 0, 0, 31.09073, 1, 1, 1000, 1000
 110694038, 1, 0.005842039, 0.0009470686, 0.001841551, 0.00344284, -0.004667462, -9.758631, 0, 0, 31.09077, 1, 1, 760, 800
 110734022, 0, 0.003536851, 0.001523767, 0.001788556, 0.001709312, -0.004447818, -9.762207, 0, 0, 31.09258, 1, 1, 1000, 1000
 110734022, 1, 0.003860788, 0.001478018, 0.001803464, 0.003158632, -0.004991743, -9.7609, 0, 0, 31.09263, 1, 1, 760, 800
 110774006, 0, 0.0009924992, 0.003460997, 0.001845699, 0.002685786, -0.003289588, -9.755424, 0, 0, 31.09444, 1, 1, 1000, 1000
 110774006, 1, 0.001066855, 0.003399234, 0.001969603, 0.002375635, -0.003279743, -9.754512, 0, 0, 31.09448, 1, 1, 760, 800
 110813990, 0, 0.00234091, 0.002221049, 0.001786776, 0.002228986, -0.003073152, -9.753197, 0, 0, 31.09629, 1, 1, 1000, 1000
 110813990, 1, 0.00239455, 0.002180526, 0.00185474, 0.001329175, -0.000382183, -9.756178, 0, 0, 31.09629, 1, 1, 760, 800
 110853974, 0, 0.002317016, 0.002209305, 0.001820155, 0.002378534, -0.003827505, -9.755485, 0, 0, 31.09814, 1, 1, 1000, 1000
 110853974, 1, 0.002329828, 0.002302378, 0.002068735, 0.003110644, -0.005773531, -9.755595, 0, 0, 31.09814, 1, 1, 760, 800
 110893958, 0, 0.002313497, 0.002230801, 0.001808711, 0.002378748, -0.003106181, -9.756517, 0, 0, 31.1, 1, 1, 1000, 1000
 110893958, 1, 0.00250788, 0.00231516, 0.001946442, 0.002878092, -0.003956013, -9.757187, 0, 0, 31.1, 1, 1, 760, 800
 110933942, 0, 0.002284594, 0.002164661, 0.001802424, 0.00184905, -0.003271989, -9.757313, 0, 0, 31.10185, 1, 1, 1000, 1000
 110933942, 1, 0.002253964, 0.002233436, 0.001877448, 0.001805481, -0.002233173, -9.756798, 0, 0, 31.10185, 1, 1, 760, 800
 110973926, 0, 0.002280742, 0.002249732, 0.001761229, 0.002239008, -0.002723715, -9.759593, 0, 0, 31.10371, 1, 1, 1000, 1000
 110973926, 1, 0.002281448, 0.002325567, 0.001706602, 0.002646922, -0.001967282, -9.75691, 0, 0, 31.10371, 1, 1, 760, 800
 111013910, 0, 0.002259623, 0.001172985, 0.001819203, 0.002246086, -0.003418486, -9.759144, 0, 0, 31.10556, 1, 1, 1000, 1000
 111013910, 1, 0.002327738, 0.001142206, 0.001859056, 0.001723663, -0.003931021, -9.761108, 0, 0, 31.10556, 1, 1, 760, 800
 111053894, 0, 0.002200005, 0.001206916, 0.001765296, 0.001835321, -0.002702122, -9.759769, 0, 0, 31.10741, 1, 1, 1000, 1000
 111053894, 1, 0.002261963, 0.001430379, 0.001726159, -0.000383843, -0.002174544, -9.762733, 0, 0, 31.10741, 1, 1, 760, 800
 111093878, 0, 0.00220112, 0.001230018, 0.001823323, 0.003097387, -0.003305942, -9.761585, 0, 0, 31.10926, 1, 1, 1000, 1000
 111093878, 1, 0.002353028, 0.001344475, 0.001933222, 0.001430684, -0.00300179, -9.761989, 0, 0, 31.10926, 1, 1, 760, 800
 111133862, 0, 0.002150461, 0.001262928, 0.001815099, 0.001755508, -0.003417284, -9.761765, 0, 0, 31.11111, 1, 1, 1000, 1000
 111133862, 1, 0.002348149, 0.001232993, 0.001859066, 0.003296448, -0.004119824, -9.760436, 0, 0, 31.11111, 1, 1, 760, 800
 111173846, 0, 0.002113537, -0.00344134, 0.001638396, 0.00300998, -0.003986337, -9.765804, 0, 0, 31.11297, 1, 1, 1000, 1000
 111173846, 1, 0.002226286, -0.003420024, 0.00167037, 0.001723226, -0.00340381, -9.764831, 0, 0, 31.11297, 1, 1, 760, 800
 111213830, 0, 0.002175297, -0.003559791, 0.00164928, 0.001451567, -0.003119079, -9.764253, 0, 0, 31.11482, 1, 1, 1000, 1000
 111213830, 1, 0.002241915, -0.003576281, 0.001580421, 0.003588037, -0.002268001, -9.763664, 0, 0, 31.11477, 1, 1, 760, 800
 111253814, 0, 0.002118464, -0.002776064, 0.001652353, 0.00128375, -0.004077105, -9.769261, 0, 0, 31.11667, 1, 1, 1000, 1000
 111253814, 1, 0.002128926, -0.002643735, 0.001675092, 0.004647812, -0.004885693, -9.768997, 0, 0, 31.11662, 1, 1, 760, 800
 111293798, 0, 0.002161284, -0.001865308, 0.00138485, 0.003427452, -0.002681272, -9.772557, 0, 0, 31.11852, 1, 1, 1000, 1000
 111293798, 1, 0.002279046, -0.001970804, 0.001274381, 0.004677464, -0.003283642, -9.77208, 0, 0, 31.11847, 1, 1, 760, 800
 111333782, 0, 0.002091953, -0.001468678, 0.00102152, 0.003220956, -0.003839196, -9.77415, 0, 0, 31.12037, 1, 1, 1000, 1000
 111333782, 1, 0.002063738, -0.00130969, 0.001006823, 0.002656143, -0.00169159, -9.772687, 0, 0, 31.12032, 1, 1, 760, 800
 111373766, 0, 0.0007661757, -0.003135222, 0.0009414809, 0.002948708, -0.003153232, -9.782101, 0, 0, 31.12222, 1, 1, 1000, 1000
 111373766, 1, 0.0006580739, -0.003016704, 0.0009735004, 0.00386671, -0.003801964, -9.77915, 0, 0, 31.12217, 1, 1, 760, 800
 111413750, 0, -0.0007642169, -0.004032633, 0.0009278033, 0.002706673, -0.003697699, -9.781956, 0, 0, 31.12407, 1, 1, 1000, 1000
 111413750, 1, -0.0008922054, -0.003946886, 0.0009782878, 0.0009808122, -0.002950226, -9.783056, 0, 0, 31.12403, 1, 1, 760, 800
 111453734, 0, 0.00023892, -0.001290583, 0.0009260248, 0.002423921, -0.002766535, -9.783962, 0, 0, 31.12592, 1, 1, 1000, 1000
 111453734, 1, 0.0002124996, -0.00114652, 0.0007823424, 0.001783199, -0.003535156, -9.783562, 0, 0, 31.12587, 1, 1, 760, 800
 111493718, 0, 0.0004664124, -0.001129749, 0.000915697, 0.003214195, -0.003295876, -9.785799, 0, 0, 31.12777, 1, 1, 1000, 1000
 111493718, 1, 0.0003746872, -0.00117908, 0.001010049, 0.001681237, -0.004314524, -9.786991, 0, 0, 31.12772, 1, 1, 760, 800
 111533702, 0, 0.0005446122, -0.0008070936, 0.0008478848, 0.001581671, -0.003928471, -9.787071, 0, 0, 31.12962, 1, 1, 1000, 1000
 111533702, 1, 0.0006871166, -0.0007898836, 0.000888163, 0.002333799, -0.003346328, -9.789669, 0, 0, 31.12957, 1, 1, 760, 800
 111574519, 0, -0.0006115873, -0.001169754, 0.0008095522, 0.002270885, -0.004863554, -9.789083, 0, 0, 31.13152, 1, 1, 1000, 1000
 111574519, 1, -0.0003609398, -0.001025765, 0.0009064694, 0.001010083, -0.001167282, -9.786803, 0, 0, 31.13152, 1, 1, 760, 800
 111614503, 0, -0.002481077, -0.002446129, 0.0007492331, 0.002433931, -0.003509264, -9.788464, 0, 0, 31.13337, 1, 1, 1000, 1000
 111614503, 1, -0.002550085, -0.002473958, 0.0006998326, -0.0002996315, -0.00307436, -9.789324, 0, 0, 31.13337, 1, 1, 760, 800
 111654487, 0, -0.001761539, -0.0006558268, 0.0007749122, 0.002348463, -0.004214014, -9.791013, 0, 0, 31.13521, 1, 1, 1000, 1000
 111654487, 1, -0.001870707, -0.0007827487, 0.0007590311, 0.0002992715, -0.002959683, -9.787738, 0, 0, 31.13521, 1, 1, 760, 800
 111694471, 0, -0.000584204, 0.0007529923, 0.000705882, 0.001649134, -0.003463564, -9.790881, 0, 0, 31.13706, 1, 1, 1000, 1000
 111694471, 1, -0.0006005402, 0.0008376518, 0.0007187436, 0.004794959, -0.004055395, -9.792646, 0, 0, 31.13706, 1, 1, 760, 800
 111734455, 0, 0.001879361, 0.002402315, 0.000635904, 0.002494147, -0.004403402, -9.790604, 0, 0, 31.13891, 1, 1, 1000, 1000
 111734455, 1, 0.002075797, 0.002458329, 0.000791497, 0.002969159, -0.001856768, -9.793036, 0, 0, 31.13891, 1, 1, 760, 800
 111774439, 0, 0.002450488, 0.002584276, 0.0006603932, 0.001832454, -0.003800559, -9.797935, 0, 0, 31.14076, 1, 1, 1000, 1000
 111774439, 1, 0.002390145, 0.002658246, 0.0007469327, 0.001578609, -0.002048141, -9.797937, 0, 0, 31.14076, 1, 1, 760, 800
 111814423, 0, 0.003034116, 0.0034545, 0.0004994436, 0.001810977, -0.003286717, -9.794657, 0, 0, 31.14261, 1, 1, 1000, 1000
 111814423, 1, 0.003000084, 0.003272724, 0.0006544502, 0.003100714, -0.003743489, -9.796053, 0, 0, 31.14261, 1, 1, 760, 800
 111854407, 0, 0.00314088, 0.002288264, 0.0006241656, 0.003291199, -0.003743478, -9.797188, 0, 0, 31.14445, 1, 1, 1000, 1000
 111854407, 1, 0.003269446, 0.002343457, 0.0005133725, 0.001712071, -0.006779612, -9.799013, 0, 0, 31.14445, 1, 1, 760, 800
 111894391, 0, 0.001273687, 0.001014305, 0.0005968614, 0.002154419, -0.003839718, -9.799974, 0, 0, 31.1463, 1, 1, 1000, 1000
 111894391, 1, 0.00116349, 0.0009155021, 0.0006453345, 0.0006418258, -0.00494839, -9.79877, 0, 0, 31.1463, 1, 1, 760, 800
 111934375, 0, 0.002398707, 0.002936319, 0.0005648427, 0.002154146, -0.003109709, -9.806149, 0, 0, 31.14815, 1, 1, 1000, 1000
 111934375, 1, 0.002404689, 0.002943737, 0.0005096976, 0.001142563, -0.005496401, -9.807247, 0, 0, 31.14815, 1, 1, 760, 800
 111974359, 0, 0.00240239, 0.002819968, 0.0005852383, 0.00263219, -0.003729356, -9.807524, 0, 0, 31.15, 1, 1, 1000, 1000
 111974359, 1, 0.00225961, 0.002866548, 0.0004179437, 0.001056768, -0.002131921, -9.806292, 0, 0, 31.15, 1, 1, 760, 800
 112014343, 0, 0.002329496, 0.002848997, 0.0006101507, 0.001991588, -0.004373906, -9.808029, 0, 0, 31.15184, 1, 1, 1000, 1000
 112014343, 1, 0.002092712, 0.002874274, 0.0005222181, -0.001083566, -0.001607872, -9.806326, 0, 0, 31.15184, 1, 1, 760, 800
 112054327, 0, 0.002343737, 0.002786696, 0.0005876408, 0.0006257346, -0.004255366, -9.80691, 0, 0, 31.15369, 1, 1, 1000, 1000
 112054327, 1, 0.002217183, 0.002819193, 0.0006726827, 0.001764904, -0.0032374, -9.807638, 0, 0, 31.15369, 1, 1, 760, 800
 112094311, 0, 0.002262467, 0.00277057, 0.0006387118, 0.0005452798, -0.004149371, -9.806892, 0, 0, 31.15553, 1, 1, 1000, 1000
 112094311, 1, 0.002249274, 0.00269209, 0.0004759863, 0.00357137, 6.125291E-05, -9.807821, 0, 0, 31.15553, 1, 1, 760, 800
 112134295, 0, 5.554274E-05, 0.0004815601, 0.0007046376, 0.001398511, -0.004509316, -9.819721, 0, 0, 31.15738, 1, 1, 1000, 1000
 112134295, 1, -8.098645E-05, 0.0003890571, 0.0006544086, -0.0002212957, -0.003978592, -9.819202, 0, 0, 31.15738, 1, 1, 760, 800
 112174279, 0, -0.0006789902, -0.0008747522, 0.0007482744, 0.002016453, -0.003869007, -9.822159, 0, 0, 31.15923, 1, 1, 1000, 1000
 112174279, 1, -0.0008030008, -0.0009637019, 0.0007807293, 0.003698357, -0.004793858, -9.823876, 0, 0, 31.15923, 1, 1, 760, 800
 112214263, 0, -0.001359914, -0.002444324, 0.000889168, 0.001373826, -0.003731849, -9.823691, 0, 0, 31.16107, 1, 1, 1000, 1000
 112214263, 1, -0.001685071, -0.00266221, 0.0008610323, 0.0004935886, -0.004040023, -9.824642, 0, 0, 31.16107, 1, 1, 760, 800
 112254247, 0, -0.001062437, -0.002855044, 0.001003568, 0.002385523, -0.004205492, -9.825649, 0, 0, 31.16292, 1, 1, 1000, 1000
 112254247, 1, -0.0009558223, -0.002763707, 0.001095871, 0.0007325019, -0.003420826, -9.825235, 0, 0, 31.16292, 1, 1, 760, 800
 112294231, 0, 0.0006703691, -0.001494803, 0.001007372, 0.00216673, -0.00372898, -9.828442, 0, 0, 31.16476, 1, 1, 1000, 1000
 112294231, 1, 0.000525806, -0.001517748, 0.0008853528, 0.004448886, -0.004550414, -9.830483, 0, 0, 31.16476, 1, 1, 760, 800
 112334215, 0, -0.001372604, -0.002784966, 0.001122055, 0.001184622, -0.004197752, -9.834856, 0, 0, 31.1666, 1, 1, 1000, 1000
 112334215, 1, -0.001486405, -0.002322007, 0.001000631, 0.00175856, -0.007354279, -9.836607, 0, 0, 31.1666, 1, 1, 760, 800
 112374199, 0, -0.001204779, -0.002255228, 0.001422502, 0.001311041, -0.003690404, -9.833849, 0, 0, 31.16845, 1, 1, 1000, 1000
 112374199, 1, -0.001293741, -0.002187697, 0.001613704, -0.001066161, -0.00716578, -9.834961, 0, 0, 31.16845, 1, 1, 760, 800
 112414183, 0, -0.00112618, -0.001626666, 0.001638359, 0.0021002, -0.00352063, -9.833966, 0, 0, 31.17029, 1, 1, 1000, 1000
 112414183, 1, -0.0008783488, -0.001476724, 0.001712832, 0.0004151607, -0.002707283, -9.833782, 0, 0, 31.17029, 1, 1, 760, 800
 112454167, 0, -0.0001591593, 0.0007611371, 0.001884813, 0.0002258021, -0.002828162, -9.828474, 0, 0, 31.17214, 1, 1, 1000, 1000
 112454167, 1, -0.0001576202, 0.0009089715, 0.001908905, 0.0031962, -0.003609719, -9.832051, 0, 0, 31.17214, 1, 1, 760, 800
 112494151, 0, 0.001039383, 0.002051162, 0.002155118, 0.001631262, -0.003106331, -9.833662, 0, 0, 31.17398, 1, 1, 1000, 1000
 112494151, 1, 0.0009189952, 0.002347322, 0.002050263, -0.001057544, -0.004124378, -9.831881, 0, 0, 31.17398, 1, 1, 760, 800
 112534135, 0, 0.001030105, 0.002047045, 0.002314718, 0.0004021787, -0.002532985, -9.835711, 0, 0, 31.17578, 1, 1, 1000, 1000
 112534135, 1, 0.0009409502, 0.002288455, 0.002371514, -0.0003828551, -0.005355131, -9.838926, 0, 0, 31.17582, 1, 1, 760, 800
 112574119, 0, 0.001018241, 0.002355161, 0.002349357, 0.001007241, -0.003212218, -9.837059, 0, 0, 31.17762, 1, 1, 1000, 1000
 112574119, 1, 0.0008746529, 0.00253693, 0.002333839, 0.00199133, -0.001344166, -9.837434, 0, 0, 31.17767, 1, 1, 760, 800
 112614103, 0, 0.001086708, 0.001490943, 0.00236456, 0.0009403037, -0.002796077, -9.835492, 0, 0, 31.17946, 1, 1, 1000, 1000
 112614103, 1, 0.0009397275, 0.00154646, 0.00252446, 0.001454764, -0.002148539, -9.831981, 0, 0, 31.17951, 1, 1, 760, 800
 112654087, 0, 0.001054415, 0.0003367646, 0.002440546, 0.0008908482, -0.002994834, -9.835948, 0, 0, 31.18131, 1, 1, 1000, 1000
 112654087, 1, 0.001013394, 0.0003428244, 0.002356, 0.003103876, -0.003253902, -9.836499, 0, 0, 31.18135, 1, 1, 760, 800
 112694071, 0, 0.001096408, 0.0003369933, 0.002342643, 0.0004885238, -0.001836114, -9.83561, 0, 0, 31.18315, 1, 1, 1000, 1000
 112694071, 1, 0.001052915, 0.0003353388, 0.002431875, 0.001873041, -0.002694963, -9.833458, 0, 0, 31.1832, 1, 1, 760, 800
 112734055, 0, 0.001119695, 0.0003808945, 0.00235384, 0.001505985, -0.003175141, -9.835374, 0, 0, 31.18499, 1, 1, 1000, 1000
 112734055, 1, 0.001092965, 0.0004636049, 0.002355621, 0.0006995873, -0.002649705, -9.835165, 0, 0, 31.18504, 1, 1, 760, 800
 112774039, 0, 0.001101572, 0.0003956566, 0.002378206, 0.001733834, -0.002741747, -9.834114, 0, 0, 31.18683, 1, 1, 1000, 1000
 112774039, 1, 0.001124376, 0.00056657, 0.002448079, -0.0001342094, -0.004913001, -9.835643, 0, 0, 31.18688, 1, 1, 760, 800
 112814023, 0, 0.002094558, 0.0005066753, 0.002408479, -0.0006081097, -0.003219971, -9.831828, 0, 0, 31.18867, 1, 1, 1000, 1000
 112814023, 1, 0.001998192, 0.0004129692, 0.002342977, -0.001159986, -0.003346929, -9.834077, 0, 0, 31.18872, 1, 1, 760, 800
 112854007, 0, 0.003332807, 0.0005189239, 0.002100929, 0.0003305616, -0.001719697, -9.825901, 0, 0, 31.19052, 1, 1, 1000, 1000
 112854007, 1, 0.00326421, 0.0007181379, 0.002081569, -0.001973078, -0.002899585, -9.827076, 0, 0, 31.19056, 1, 1, 760, 800
 112893991, 0, 0.005648832, 0.0004805333, 0.001798535, 0.001623385, -0.002077089, -9.827311, 0, 0, 31.19236, 1, 1, 1000, 1000
 112893991, 1, 0.005522547, 0.0006190748, 0.001638111, -0.001442219, -0.001003947, -9.824888, 0, 0, 31.19236, 1, 1, 760, 800
 112933975, 0, 0.004040115, 0.0005311531, 0.001479526, 0.0004727118, -0.002461288, -9.826487, 0, 0, 31.1942, 1, 1, 1000, 1000
 112933975, 1, 0.003843375, 0.000409448, 0.001532532, 0.001464496, -0.002832837, -9.827202, 0, 0, 31.1942, 1, 1, 760, 800
 112973959, 0, 0.003896385, 0.0005990671, 0.001205457, 0.0006021612, -0.001616103, -9.82684, 0, 0, 31.19604, 1, 1, 1000, 1000
 112973959, 1, 0.003878081, 0.0007071971, 0.00114536, 0.002214494, -0.0007409845, -9.825176, 0, 0, 31.19604, 1, 1, 760, 800
 113013943, 0, 0.003543021, 0.0006031634, 0.0008930372, -0.000175698, -0.0009319396, -9.826792, 0, 0, 31.19788, 1, 1, 1000, 1000
 113013943, 1, 0.003313977, 0.0006761419, 0.0009428464, -0.002699106, -0.001315661, -9.828522, 0, 0, 31.19788, 1, 1, 760, 800
 113053927, 0, 0.0036422, 0.003801372, 0.0006613167, 3.194649E-05, -0.002465198, -9.818557, 0, 0, 31.19972, 1, 1, 1000, 1000
 113053927, 1, 0.003720804, 0.004035627, 0.0006687096, 0.0005934385, -0.0008200789, -9.817022, 0, 0, 31.19972, 1, 1, 760, 800
 113093911, 0, 0.002902135, 0.004511637, 0.0004952127, -0.001302256, -0.001371651, -9.820559, 0, 0, 31.20156, 1, 1, 1000, 1000
 113093911, 1, 0.002807163, 0.004569846, 0.0005353006, -0.003235416, -0.0003804721, -9.823843, 0, 0, 31.20156, 1, 1, 760, 800
 113133895, 0, 0.002119983, 0.003572167, 0.000338252, -0.0007502884, -0.001452488, -9.823197, 0, 0, 31.2034, 1, 1, 1000, 1000
 113133895, 1, 0.002198512, 0.003527493, 0.0003648498, -0.0009715511, -0.002301466, -9.823244, 0, 0, 31.2034, 1, 1, 760, 800
 113173879, 0, 0.0004010074, 0.003390882, -1.358456E-06, -8.746739E-05, -0.002272396, -9.824768, 0, 0, 31.20524, 1, 1, 1000, 1000
 113173879, 1, 0.0004822066, 0.003468891, 9.747958E-05, -0.001655469, -0.001200209, -9.823591, 0, 0, 31.20524, 1, 1, 760, 800
 113213863, 0, -0.0007603022, 0.002515683, -0.0003400862, -0.001087719, -0.0009673928, -9.819145, 0, 0, 31.20708, 1, 1, 1000, 1000
 113213863, 1, -0.0008460609, 0.00249154, -0.0004525929, -0.004956984, -0.004206217, -9.818907, 0, 0, 31.20708, 1, 1, 760, 800
 113253847, 0, -0.0007307391, 0.004535074, -0.0004449644, -0.001893121, -0.001349784, -9.81822, 0, 0, 31.20892, 1, 1, 1000, 1000
 113253847, 1, -0.0008577225, 0.004636312, -0.0005415407, -0.0009610105, -0.00199235, -9.819742, 0, 0, 31.20892, 1, 1, 760, 800
 113293831, 0, 0.0003631334, 0.005794921, -0.000618014, -0.001331233, -0.0009220447, -9.817348, 0, 0, 31.21075, 1, 1, 1000, 1000
 113293831, 1, 0.000395818, 0.005914588, -0.0004517172, -0.002161548, -0.002054248, -9.818416, 0, 0, 31.21071, 1, 1, 760, 800
 113333815, 0, 0.001042794, 0.003689842, -0.000514997, -0.001108893, -0.001276831, -9.81969, 0, 0, 31.21259, 1, 1, 1000, 1000
 113333815, 1, 0.0008145755, 0.003645751, -0.0006869382, -0.0007746213, -0.001937649, -9.82015, 0, 0, 31.21255, 1, 1, 760, 800
 113373799, 0, 0.00170957, 0.00309437, -0.0005433394, -0.00212649, -0.0004590793, -9.817049, 0, 0, 31.21443, 1, 1, 1000, 1000
 113373799, 1, 0.001810351, 0.003117912, -0.0004356134, 0.0006233971, -0.0006574234, -9.820082, 0, 0, 31.21439, 1, 1, 760, 800
 113413783, 0, 0.001541644, 0.002769688, -0.0004647637, -0.001017167, -0.0004962783, -9.81623, 0, 0, 31.21627, 1, 1, 1000, 1000
 113413783, 1, 0.001448583, 0.002644049, -0.0006766382, -0.004320662, -0.0005215049, -9.816435, 0, 0, 31.21622, 1, 1, 760, 800
 113453767, 0, 0.001490788, 0.002189159, -0.0003632685, -0.002404726, -0.0009207334, -9.816763, 0, 0, 31.21811, 1, 1, 1000, 1000
 113453767, 1, 0.001538322, 0.002359483, -0.0003862322, -0.0002737009, 0.001900368, -9.81468, 0, 0, 31.21806, 1, 1, 760, 800
 113493751, 0, 0.002417311, 0.003519867, -0.0002534385, -0.002425731, -0.002062553, -9.81485, 0, 0, 31.21994, 1, 1, 1000, 1000
 113493751, 1, 0.002535694, 0.003539696, -0.000173061, -0.001055169, -0.002670889, -9.812197, 0, 0, 31.2199, 1, 1, 760, 800
 113533735, 0, 0.002362062, 0.003751644, -0.0002275036, -0.00259143, -0.0006105367, -9.814503, 0, 0, 31.22178, 1, 1, 1000, 1000
 113533735, 1, 0.002226266, 0.003758759, -0.0001810776, -0.001691157, 0.0005328289, -9.815037, 0, 0, 31.22174, 1, 1, 760, 800
 113573719, 0, 0.002740074, 0.003399021, -0.0001126624, -0.001970275, -0.0008909652, -9.816413, 0, 0, 31.22362, 1, 1, 1000, 1000
 113573719, 1, 0.002734553, 0.003555701, -9.809079E-05, -0.0005959267, -0.002036451, -9.816062, 0, 0, 31.22357, 1, 1, 760, 800
 113613703, 0, 0.002462327, 0.002873519, 5.181003E-05, -0.002371142, -0.0009787779, -9.815568, 0, 0, 31.22546, 1, 1, 1000, 1000
 113613703, 1, 0.002515994, 0.002740013, 3.055802E-05, -0.003208222, -0.0009572846, -9.815455, 0, 0, 31.22541, 1, 1, 760, 800
 113654520, 0, 0.003552579, 0.001928724, 0.0001399991, -0.002679604, -0.0009177029, -9.814264, 0, 0, 31.22734, 1, 1, 1000, 1000
 113654520, 1, 0.003595771, 0.001562886, 9.957672E-05, -0.002024221, -0.0009719989, -9.817869, 0, 0, 31.22734, 1, 1, 760, 800
 113694504, 0, 0.005091441, 0.002398902, 0.0003108298, -0.002909285, -0.000272213, -9.813248, 0, 0, 31.22917, 1, 1, 1000, 1000
 113694504, 1, 0.005103359, 0.00238134, 0.0003042106, -0.0007333992, -0.001161124, -9.81299, 0, 0, 31.22917, 1, 1, 760, 800
 113734488, 0, 0.003313788, 4.144072E-05, 0.0003267091, -0.003473434, 0.0003493978, -9.813246, 0, 0, 31.23101, 1, 1, 1000, 1000
 113734488, 1, 0.00314823, 0.0002416634, 0.0003212244, 0.0001287235, 0.001132659, -9.811201, 0, 0, 31.23101, 1, 1, 760, 800
 113774472, 0, 0.002665772, 0.0003000793, 0.00049795, -0.001723359, -0.001630366, -9.810661, 0, 0, 31.23285, 1, 1, 1000, 1000
 113774472, 1, 0.002556541, 0.0004196749, 0.0002990345, -0.00137964, 0.001218182, -9.810349, 0, 0, 31.23285, 1, 1, 760, 800
 113814456, 0, 0.001296383, 0.0007609266, 0.0006060838, -0.004122972, 9.356865E-05, -9.808692, 0, 0, 31.23468, 1, 1, 1000, 1000
 113814456, 1, 0.0011961, 0.0009844581, 0.0005356636, -0.003907516, -0.001225035, -9.809306, 0, 0, 31.23468, 1, 1, 760, 800
 113854440, 0, 0.001472995, 0.002839891, 0.0008465589, -0.002928848, 0.0008011085, -9.805322, 0, 0, 31.23652, 1, 1, 1000, 1000
 113854440, 1, 0.001472883, 0.002960217, 0.0007844623, -0.004290739, 0.0003088873, -9.803137, 0, 0, 31.23652, 1, 1, 760, 800
 113894424, 0, 0.001579833, 0.002650063, 0.001231739, -0.002577502, 0.0005016684, -9.804543, 0, 0, 31.23835, 1, 1, 1000, 1000
 113894424, 1, 0.001530073, 0.002642155, 0.001191544, -0.002930438, -0.000292155, -9.804508, 0, 0, 31.23835, 1, 1, 760, 800
 113934408, 0, 6.453406E-05, 0.002575444, 0.001551167, -0.001631194, 0.0004248585, -9.805371, 0, 0, 31.24019, 1, 1, 1000, 1000
 113934408, 1, -2.123114E-05, 0.002628139, 0.001521704, -0.002881669, 0.001628761, -9.805372, 0, 0, 31.24019, 1, 1, 760, 800
 113974392, 0, -0.0007651088, 0.002637773, 0.001822715, -0.003774205, 0.0009695491, -9.805054, 0, 0, 31.24202, 1, 1, 1000, 1000
 113974392, 1, -0.0008708731, 0.00267936, 0.001887405, -0.001228587, -7.04807E-05, -9.805973, 0, 0, 31.24202, 1, 1, 760, 800
 114014376, 0, -0.0005863501, 0.002587247, 0.002211145, -0.003094975, 0.000997196, -9.805416, 0, 0, 31.24386, 1, 1, 1000, 1000
 114014376, 1, -0.0005471775, 0.002612005, 0.002226308, -0.002975148, 0.001212762, -9.804615, 0, 0, 31.24386, 1, 1, 760, 800
 114054360, 0, 0.0007456535, 0.002522842, 0.002545414, -0.003598257, 0.001278207, -9.803459, 0, 0, 31.24569, 1, 1, 1000, 1000
 114054360, 1, 0.0004125995, 0.002756948, 0.002512998, -0.004000821, 0.0007333967, -9.803346, 0, 0, 31.24569, 1, 1, 760, 800
 114094344, 0, 0.003843282, 0.002542006, 0.002667585, -0.004213091, 0.0002513484, -9.800444, 0, 0, 31.24752, 1, 1, 1000, 1000
 114094344, 1, 0.003851099, 0.002610367, 0.002739144, -0.001059491, 0.0005453364, -9.801575, 0, 0, 31.24752, 1, 1, 760, 800
 114134328, 0, 0.002328961, 0.0007365649, 0.002787297, -0.003107431, 0.0006132175, -9.804027, 0, 0, 31.24936, 1, 1, 1000, 1000
 114134328, 1, 0.002423311, 0.0008255268, 0.003018747, -0.0008613353, -0.0003534585, -9.804402, 0, 0, 31.24936, 1, 1, 760, 800
 114174312, 0, 0.002848894, 7.584898E-05, 0.002862921, -0.002420187, 0.000514093, -9.811934, 0, 0, 31.25119, 1, 1, 1000, 1000
 114174312, 1, 0.002520293, 0.0001459619, 0.002871766, -0.001621722, 0.002030431, -9.812416, 0, 0, 31.25119, 1, 1, 760, 800
 114214296, 0, 0.002180384, -0.0002244052, 0.002978432, -0.005277568, 0.0004554697, -9.800658, 0, 0, 31.25302, 1, 1, 1000, 1000
 114214296, 1, 0.002252193, -0.0001261613, 0.002960268, -0.001764065, -0.0003551022, -9.802305, 0, 0, 31.25302, 1, 1, 760, 800
 114254280, 0, 0.002381326, -0.0004579061, 0.002864041, -0.001487931, 0.0002420172, -9.797785, 0, 0, 31.25486, 1, 1, 1000, 1000
 114254280, 1, 0.002466841, -0.0002247477, 0.002845664, -0.005229647, -0.0009952631, -9.798563, 0, 0, 31.25486, 1, 1, 760, 800
 114294264, 0, 0.004444977, 0.001050428, 0.00278048, -0.003095216, 0.0001662185, -9.802337, 0, 0, 31.25669, 1, 1, 1000, 1000
 114294264, 1, 0.004431314, 0.001272088, 0.002823531, -0.001783267, 6.859348E-05, -9.801536, 0, 0, 31.25669, 1, 1, 760, 800
 114334248, 0, 0.004298666, 0.001164239, 0.002550595, -0.004318194, 0.0001095106, -9.802516, 0, 0, 31.25852, 1, 1, 1000, 1000
 114334248, 1, 0.004049021, 0.001236864, 0.00248146, -0.004993556, 0.001855417, -9.801832, 0, 0, 31.25852, 1, 1, 760, 800
 114374232, 0, 0.001134272, -0.0002392499, 0.002425324, -0.003305793, 0.0007919666, -9.803035, 0, 0, 31.26035, 1, 1, 1000, 1000
 114374232, 1, 0.001379244, -0.0002013979, 0.002374378, -0.002153832, -0.000693739, -9.804083, 0, 0, 31.26035, 1, 1, 760, 800
 114414216, 0, 0.001301378, -0.0001611046, 0.002174976, -0.004215099, 0.001414115, -9.803432, 0, 0, 31.26218, 1, 1, 1000, 1000
 114414216, 1, 0.00139684, -0.0001377043, 0.002097607, -0.003934081, -0.0001343679, -9.802983, 0, 0, 31.26218, 1, 1, 760, 800
 114454200, 0, 0.001287624, -0.0002660254, 0.001903275, -0.003692574, 0.001008035, -9.802711, 0, 0, 31.26402, 1, 1, 1000, 1000
 114454200, 1, 0.001107349, -0.0002757701, 0.001971462, -0.002532993, 0.0002952405, -9.801405, 0, 0, 31.26402, 1, 1, 760, 800
 114494184, 0, 0.001311845, 0.003492775, 0.001769281, -0.003443232, 0.0004195143, -9.800217, 0, 0, 31.26585, 1, 1, 1000, 1000
 114494184, 1, 0.001275552, 0.00347736, 0.001875779, -0.003720141, 0.002631895, -9.80043, 0, 0, 31.26585, 1, 1, 760, 800
 114534168, 0, 0.001270943, 0.002514022, 0.001738315, -0.003628016, 0.00122551, -9.80028, 0, 0, 31.26768, 1, 1, 1000, 1000
 114534168, 1, 0.001199539, 0.002374074, 0.001691158, -0.003823732, 0.002608552, -9.801952, 0, 0, 31.26768, 1, 1, 760, 800
 114574152, 0, 0.001301058, 0.002308984, 0.001500178, -0.003068778, 0.002535392, -9.807557, 0, 0, 31.26951, 1, 1, 1000, 1000
 114574152, 1, 0.001344368, 0.002531742, 0.001546166, -0.001679868, 7.879573E-06, -9.806601, 0, 0, 31.26951, 1, 1, 760, 800
 114614136, 0, 0.001376542, 0.002725539, 0.001263049, -0.00328744, 0.001496701, -9.806539, 0, 0, 31.27129, 1, 1, 1000, 1000
 114614136, 1, 0.001303646, 0.002749879, 0.001258362, -0.002736005, 0.001384662, -9.808096, 0, 0, 31.27134, 1, 1, 760, 800
 114654120, 0, 0.00130568, 0.002750131, 0.001020228, -0.003464511, 0.001347368, -9.804533, 0, 0, 31.27312, 1, 1, 1000, 1000
 114654120, 1, 0.00138265, 0.00271905, 0.001033413, -0.003893052, -0.001036362, -9.80179, 0, 0, 31.27317, 1, 1, 760, 800
 114694104, 0, 0.003170806, 0.005214899, 0.0007758596, -0.003675872, 0.001685854, -9.805761, 0, 0, 31.27496, 1, 1, 1000, 1000
 114694104, 1, 0.003178164, 0.005314109, 0.0008077654, -0.003004962, 0.00294594, -9.806396, 0, 0, 31.275, 1, 1, 760, 800
 114734088, 0, 0.003245945, 0.003504846, 0.0004357664, -0.005079923, 0.001098484, -9.80785, 0, 0, 31.27678, 1, 1, 1000, 1000
 114734088, 1, 0.003167998, 0.003502748, 0.0003910062, -0.002691611, 0.003658472, -9.806032, 0, 0, 31.27683, 1, 1, 760, 800
 114774072, 0, 0.002337879, 0.002140888, 0.0001061313, -0.003429624, 0.001225054, -9.806585, 0, 0, 31.27861, 1, 1, 1000, 1000
 114774072, 1, 0.002243926, 0.002094955, 0.000182116, -0.003395013, 0.001400378, -9.805899, 0, 0, 31.27866, 1, 1, 760, 800
 114814056, 0, 0.002305837, 0.001433231, -0.0001114866, -0.002912054, 0.0007868875, -9.806684, 0, 0, 31.28044, 1, 1, 1000, 1000
 114814056, 1, 0.002170514, 0.001455616, -0.0001701238, -0.003438874, 0.002709109, -9.807714, 0, 0, 31.28049, 1, 1, 760, 800
 114854040, 0, 0.002307932, 0.0007270109, -0.0004240867, -0.003667844, 0.002962801, -9.809725, 0, 0, 31.28227, 1, 1, 1000, 1000
 114854040, 1, 0.002180363, 0.0009491525, -0.0003749449, -0.002519963, 0.0008983339, -9.810333, 0, 0, 31.28232, 1, 1, 760, 800
 114894024, 0, 0.003425427, 0.001162922, -0.0005786137, -0.003517846, 0.00192648, -9.812331, 0, 0, 31.2841, 1, 1, 1000, 1000
 114894024, 1, 0.00345969, 0.001203491, -0.0006188797, -0.005688295, 0.002971611, -9.813947, 0, 0, 31.28415, 1, 1, 760, 800
 114934008, 0, 0.003264151, 2.768152E-05, -0.0006784882, -0.00452741, 0.001815066, -9.811111, 0, 0, 31.28593, 1, 1, 1000, 1000
 114934008, 1, 0.003352511, -9.648655E-05, -0.0006659426, -0.005151549, 0.001867405, -9.809382, 0, 0, 31.28598, 1, 1, 760, 800
 114973992, 0, 0.001990716, 8.096926E-05, -0.0007783882, -0.004562621, 0.002675497, -9.802548, 0, 0, 31.28776, 1, 1, 1000, 1000
 114973992, 1, 0.001816809, 4.292073E-05, -0.0008709732, -0.001845248, 0.001077668, -9.803621, 0, 0, 31.28776, 1, 1, 760, 800
 115013976, 0, 0.002914181, -0.0003661842, -0.0008157999, -0.004426287, 0.001539469, -9.811908, 0, 0, 31.28959, 1, 1, 1000, 1000
 115013976, 1, 0.002930602, -0.0003768178, -0.0009222613, -0.001177257, -0.0007694869, -9.81455, 0, 0, 31.28959, 1, 1, 760, 800
 115053960, 0, 0.003230961, -0.0005140568, -0.0007274363, -0.003128901, 0.002792585, -9.811403, 0, 0, 31.29142, 1, 1, 1000, 1000
 115053960, 1, 0.003346559, -0.0007082602, -0.0006977465, -0.001293376, 0.004119343, -9.81223, 0, 0, 31.29142, 1, 1, 760, 800
 115093944, 0, 0.006005589, 0.004793106, -0.0005665934, -0.004391266, 0.002481894, -9.804958, 0, 0, 31.29324, 1, 1, 1000, 1000
 115093944, 1, 0.005983362, 0.004736, -0.0006187726, -0.005237951, 0.00200453, -9.806913, 0, 0, 31.29324, 1, 1, 760, 800
 115133928, 0, 0.005477697, 0.004504266, -0.0003023952, -0.004562285, 0.002547905, -9.80615, 0, 0, 31.29507, 1, 1, 1000, 1000
 115133928, 1, 0.005339163, 0.004472348, -0.0001291678, -0.006119181, 0.003944287, -9.806122, 0, 0, 31.29507, 1, 1, 760, 800
 115173912, 0, 0.001708702, 0.001350766, -3.817211E-05, -0.003580776, 0.002412615, -9.807852, 0, 0, 31.2969, 1, 1, 1000, 1000
 115173912, 1, 0.001792254, 0.001462057, -1.126819E-05, -0.003617975, 0.00442465, -9.807012, 0, 0, 31.2969, 1, 1, 760, 800
 115213896, 0, 0.001828439, 0.001487018, 0.0003733288, -0.005074609, 0.002908193, -9.808318, 0, 0, 31.29873, 1, 1, 1000, 1000
 115213896, 1, 0.001888773, 0.001422729, 0.0004158569, -0.006337868, 0.00262594, -9.80901, 0, 0, 31.29873, 1, 1, 760, 800
 115253880, 0, 0.001088484, 0.001450801, 0.0006060906, -0.004750811, 0.001517829, -9.810345, 0, 0, 31.30055, 1, 1, 1000, 1000
 115253880, 1, 0.001357581, 0.001483761, 0.0004494216, -0.004466862, 0.003341407, -9.810514, 0, 0, 31.30055, 1, 1, 760, 800
 115293864, 0, 0.002399009, 0.004553134, 0.0008799118, -0.004789763, 0.002679088, -9.808731, 0, 0, 31.30238, 1, 1, 1000, 1000
 115293864, 1, 0.002189955, 0.004515483, 0.0009221149, -0.004150606, 0.0001779405, -9.80871, 0, 0, 31.30238, 1, 1, 760, 800
 115333848, 0, 0.001726575, 0.004330763, 0.001226808, -0.004437, 0.002526018, -9.807522, 0, 0, 31.3042, 1, 1, 1000, 1000
 115333848, 1, 0.001519539, 0.004152496, 0.001215523, -0.0048651, 0.004086468, -9.807877, 0, 0, 31.3042, 1, 1, 760, 800
 115373832, 0, 0.000153819, 0.003256158, 0.001547316, -0.005098468, 0.002475065, -9.813808, 0, 0, 31.30603, 1, 1, 1000, 1000
 115373832, 1, 7.913168E-06, 0.003154154, 0.001449466, -0.004847262, 0.004881253, -9.812944, 0, 0, 31.30598, 1, 1, 760, 800
 115413816, 0, 0.001096056, 0.0024812, 0.001662884, -0.004337323, 0.003707639, -9.81556, 0, 0, 31.30786, 1, 1, 1000, 1000
 115413816, 1, 0.001348299, 0.002697933, 0.001734279, -0.003361526, 0.003406533, -9.815718, 0, 0, 31.30781, 1, 1, 760, 800
 115453800, 0, 0.00177333, 0.004148045, 0.001783896, -0.004826348, 0.002772719, -9.809801, 0, 0, 31.30968, 1, 1, 1000, 1000
 115453800, 1, 0.001872998, 0.004213787, 0.001750462, -0.004367352, 0.002411794, -9.811705, 0, 0, 31.30964, 1, 1, 760, 800
 115493784, 0, 0.00428344, 0.00520931, 0.002139585, -0.004146841, 0.002641168, -9.807994, 0, 0, 31.31151, 1, 1, 1000, 1000
 115493784, 1, 0.004342285, 0.005359007, 0.002099276, -0.006265541, 0.002504203, -9.808691, 0, 0, 31.31146, 1, 1, 760, 800
 115533768, 0, 0.004921213, 0.004974477, 0.002395242, -0.005134259, 0.00326708, -9.809894, 0, 0, 31.31333, 1, 1, 1000, 1000
 115533768, 1, 0.004787285, 0.004942476, 0.002452131, -0.002006029, 0.002704598, -9.808402, 0, 0, 31.31329, 1, 1, 760, 800
 115573752, 0, 0.002960431, 0.001074826, 0.002582601, -0.004340905, 0.002538995, -9.819286, 0, 0, 31.31516, 1, 1, 1000, 1000
 115573752, 1, 0.00306335, 0.001132163, 0.002689386, -0.001485861, 0.003486172, -9.819721, 0, 0, 31.31511, 1, 1, 760, 800
 115613736, 0, 0.002822759, 0.0006334968, 0.002582681, -0.003014605, 0.002698687, -9.814749, 0, 0, 31.31698, 1, 1, 1000, 1000
 115613736, 1, 0.002945119, 0.0004996979, 0.002472487, -0.003933915, 0.001728322, -9.816359, 0, 0, 31.31693, 1, 1, 760, 800
 115653720, 0, 0.003187722, 0.0009009474, 0.002517956, -0.003965914, 0.00227384, -9.814346, 0, 0, 31.31881, 1, 1, 1000, 1000
 115653720, 1, 0.003146543, 0.0009270539, 0.00256412, -0.005168879, 0.0008308977, -9.814507, 0, 0, 31.31876, 1, 1, 760, 800
 115693704, 0, 0.004944969, 0.002842888, 0.002504551, -0.004446912, 0.001122718, -9.814073, 0, 0, 31.32063, 1, 1, 1000, 1000
 115693704, 1, 0.004966585, 0.002801671, 0.002238088, -0.004135937, 0.002051521, -9.81354, 0, 0, 31.32058, 1, 1, 760, 800
 115734521, 0, 0.005437225, 0.0015153, 0.002394069, -0.004290459, 0.002995124, -9.815392, 0, 0, 31.3225, 1, 1, 1000, 1000
 115734521, 1, 0.005467804, 0.001504618, 0.002331031, -0.004362417, 0.002045023, -9.815688, 0, 0, 31.3225, 1, 1, 760, 800
 115774505, 0, 0.002294064, 0.001664957, 0.002239049, -0.004156399, 0.002835151, -9.815048, 0, 0, 31.32432, 1, 1, 1000, 1000
 115774505, 1, 0.002477686, 0.001518506, 0.002335614, -0.005506881, 6.889322E-05, -9.816473, 0, 0, 31.32432, 1, 1, 760, 800
 115814489, 0, 0.002966634, 0.003057592, 0.002313091, -0.004681651, 0.001930703, -9.815168, 0, 0, 31.32615, 1, 1, 1000, 1000
 115814489, 1, 0.003102759, 0.00322019, 0.002394167, -0.004490713, 0.001490389, -9.81542, 0, 0, 31.32615, 1, 1, 760, 800
 115854473, 0, 0.003470575, 0.003979774, 0.002177875, -0.004832454, 0.002460771, -9.809036, 0, 0, 31.32797, 1, 1, 1000, 1000
 115854473, 1, 0.003210261, 0.004062137, 0.002224631, -0.003786492, 0.001892062, -9.80949, 0, 0, 31.32797, 1, 1, 760, 800
 115894457, 0, 0.003797292, 0.004567409, 0.00191745, -0.004547339, 0.001623928, -9.807708, 0, 0, 31.32979, 1, 1, 1000, 1000
 115894457, 1, 0.0038763, 0.004672595, 0.001953367, -0.003914653, 0.002522975, -9.807896, 0, 0, 31.32979, 1, 1, 760, 800
 115934441, 0, 0.003714763, 0.003312316, 0.001536161, -0.004068911, 0.0008506693, -9.80984, 0, 0, 31.33162, 1, 1, 1000, 1000
 115934441, 1, 0.003693131, 0.003109403, 0.00138779, -0.00264686, 0.003254986, -9.808, 0, 0, 31.33162, 1, 1, 760, 800
 115974425, 0, 0.003008122, 0.0007654845, 0.001451326, -0.004808887, 0.002805672, -9.814363, 0, 0, 31.33344, 1, 1, 1000, 1000
 115974425, 1, 0.003143513, 0.0008492388, 0.001251306, -0.001492004, 0.004185763, -9.814466, 0, 0, 31.33344, 1, 1, 760, 800
 116014409, 0, 0.001260117, -0.001416289, 0.001321667, -0.004824012, 0.002555039, -9.81163, 0, 0, 31.33526, 1, 1, 1000, 1000
 116014409, 1, 0.001222689, -0.001526733, 0.001227578, -0.003112558, 0.002255996, -9.813552, 0, 0, 31.33526, 1, 1, 760, 800
 116054393, 0, 0.001067836, 0.0001418364, 0.001105965, -0.005108336, 0.001764707, -9.808843, 0, 0, 31.33708, 1, 1, 1000, 1000
 116054393, 1, 0.0008993597, -6.922048E-05, 0.001108859, -0.004658155, 0.001125491, -9.806831, 0, 0, 31.33708, 1, 1, 760, 800
 116094377, 0, 0.003842513, 0.001953732, 0.0009309867, -0.004335797, 0.001389577, -9.806229, 0, 0, 31.3389, 1, 1, 1000, 1000
 116094377, 1, 0.003775754, 0.002022785, 0.0008456712, -0.004432934, 0.001885163, -9.806152, 0, 0, 31.3389, 1, 1, 760, 800
 116134361, 0, 0.003146244, 0.001463153, 0.0007547626, -0.00412581, 0.001991935, -9.818526, 0, 0, 31.34072, 1, 1, 1000, 1000
 116134361, 1, 0.003278545, 0.001588441, 0.0008651007, -0.00544024, 0.0009006373, -9.817015, 0, 0, 31.34072, 1, 1, 760, 800
 116174345, 0, 0.00282874, 0.001319453, 0.000729206, -0.002786423, 0.001745773, -9.817915, 0, 0, 31.34254, 1, 1, 1000, 1000
 116174345, 1, 0.002784916, 0.001229272, 0.0006443601, -0.003313448, 0.001935681, -9.816291, 0, 0, 31.34254, 1, 1, 760, 800
 116214329, 0, 0.002498782, 0.001055851, 0.000717393, -0.003407226, 0.002497179, -9.816108, 0, 0, 31.34436, 1, 1, 1000, 1000
 116214329, 1, 0.002516212, 0.001325894, 0.000886562, -0.003883897, 0.001337637, -9.814402, 0, 0, 31.34436, 1, 1, 760, 800
 116254313, 0, 0.002951389, 0.003380065, 0.0007520302, -0.003419461, 0.001737612, -9.81486, 0, 0, 31.34619, 1, 1, 1000, 1000
 116254313, 1, 0.003213245, 0.003411236, 0.0005894803, -0.004389135, -0.00100619, -9.819036, 0, 0, 31.34619, 1, 1, 760, 800
 116294297, 0, 0.004429282, 0.005120263, 0.0007433716, -0.005110083, 0.002492209, -9.816792, 0, 0, 31.34801, 1, 1, 1000, 1000
 116294297, 1, 0.004351649, 0.005189436, 0.0007496381, -0.002342421, 0.00161542, -9.816828, 0, 0, 31.34801, 1, 1, 760, 800
 116334281, 0, 0.004375684, 0.004116711, 0.0006733043, -0.004090441, 0.002180174, -9.817546, 0, 0, 31.34983, 1, 1, 1000, 1000
 116334281, 1, 0.004248513, 0.004253116, 0.0007440939, -0.006504135, 0.0009740819, -9.816872, 0, 0, 31.34983, 1, 1, 760, 800
 116374265, 0, 0.002633579, 0.003474294, 0.0007441968, -0.003899055, 0.002069507, -9.819018, 0, 0, 31.35165, 1, 1, 1000, 1000
 116374265, 1, 0.002536602, 0.003533665, 0.0007326127, -0.001617364, 0.00026408, -9.821339, 0, 0, 31.35165, 1, 1, 760, 800
 116414249, 0, -0.0006323761, 0.001993743, 0.0007184183, -0.002457377, 0.001037358, -9.818491, 0, 0, 31.35347, 1, 1, 1000, 1000
 116414249, 1, -0.0009338907, 0.001893368, 0.0007241099, -0.001782324, 0.001913118, -9.818073, 0, 0, 31.35347, 1, 1, 760, 800
 116454233, 0, 0.001243527, 0.003332519, 0.0007645247, -0.002506538, 0.001022779, -9.817779, 0, 0, 31.35529, 1, 1, 1000, 1000
 116454233, 1, 0.00113268, 0.00338641, 0.0007509997, -0.003008478, -0.0001886072, -9.8197, 0, 0, 31.35529, 1, 1, 760, 800
 116494217, 0, 0.0004297148, 0.001743789, 0.000760384, -0.003452057, 0.0008218194, -9.816244, 0, 0, 31.35711, 1, 1, 1000, 1000
 116494217, 1, 0.0003252437, 0.001389946, 0.000879232, -0.003745034, -0.0003292073, -9.818094, 0, 0, 31.35711, 1, 1, 760, 800
 116534201, 0, -0.0009039869, -0.0004687519, 0.0008063663, -0.002020547, 7.426139E-05, -9.820717, 0, 0, 31.35892, 1, 1, 1000, 1000
 116534201, 1, -0.0009026642, -0.0007578637, 0.0007686186, -0.004068916, -0.001067864, -9.818398, 0, 0, 31.35892, 1, 1, 760, 800
 116574185, 0, 0.0002086381, -0.0002328785, 0.0008507313, -0.003455875, 0.001429986, -9.820175, 0, 0, 31.36074, 1, 1, 1000, 1000
 116574185, 1, 0.0001076093, -3.527832E-05, 0.0007462201, -0.004273172, 0.000519644, -9.820256, 0, 0, 31.36074, 1, 1, 760, 800
 116614169, 0, -0.002865693, -0.001845998, 0.0009221308, -0.002996948, 0.001257065, -9.819903, 0, 0, 31.36256, 1, 1, 1000, 1000
 116614169, 1, -0.002848917, -0.001769642, 0.0009186404, -0.003477396, 0.002167326, -9.819618, 0, 0, 31.36256, 1, 1, 760, 800
 116654153, 0, -1.748039E-05, -0.0005138331, 0.0009554442, -0.003957532, 0.0005176095, -9.820651, 0, 0, 31.36438, 1, 1, 1000, 1000
 116654153, 1, 0.0001031479, -0.0004101013, 0.001165864, -0.003172491, 0.0020036, -9.822968, 0, 0, 31.36438, 1, 1, 760, 800
 116694137, 0, 0.0008040131, -0.0001540206, 0.001013637, -0.002295509, 0.001059311, -9.817795, 0, 0, 31.3662, 1, 1, 1000, 1000
 116694137, 1, 0.0009462571, 0.0001040673, 0.0009619172, -0.001640194, 0.002462734, -9.817607, 0, 0, 31.3662, 1, 1, 760, 800
 116734121, 0, 0.002615133, 0.0007603169, 0.001018429, -0.002864646, 0.001311768, -9.818848, 0, 0, 31.36797, 1, 1, 1000, 1000
 116734121, 1, 0.002612601, 0.0007215395, 0.001091497, -0.002406783, 0.0003204665, -9.817041, 0, 0, 31.36802, 1, 1, 760, 800
 116774105, 0, 0.003832316, 0.003198944, 0.001136739, -0.001635007, 0.001168406, -9.81952, 0, 0, 31.36979, 1, 1, 1000, 1000
 116774105, 1, 0.003788708, 0.003217901, 0.00102558, -0.004835961, 0.003090992, -9.819822, 0, 0, 31.36983, 1, 1, 760, 800
 116814089, 0, -0.0002186896, 0.001390043, 0.001140062, -0.002819091, 7.330805E-05, -10.56058, 0, 0, 31.3716, 1, 1, 1000, 1000
 116814089, 1, -0.0001555579, 0.001475499, 0.001286141, -0.003290681, 0.00142494, -10.57517, 0, 0, 31.37165, 1, 1, 760, 800
 116854073, 0, -6.819668E-05, 0.0007347868, 0.001183622, -0.003334577, 0.001424873, -10.46416, 0, 0, 31.37342, 1, 1, 1000, 1000
 116854073, 1, 0.0001463913, 0.0009593338, 0.001120968, -0.003828309, 0.0009066815, -10.46183, 0, 0, 31.37347, 1, 1, 760, 800
 116894057, 0, 0.001496194, 0.0009145706, 0.001206254, -0.001800345, 0.001597984, -10.10491, 0, 0, 31.37524, 1, 1, 1000, 1000
 116894057, 1, 0.001403941, 0.0009164207, 0.001245706, -0.001603924, 0.0004932635, -10.10513, 0, 0, 31.37528, 1, 1, 760, 800
 116934041, 0, 0.001948302, 0.001546854, 0.0012421, -0.001022413, 0.0007956043, -9.998816, 0, 0, 31.37705, 1, 1, 1000, 1000
 116934041, 1, 0.001876994, 0.001568611, 0.001155319, -0.003229186, 0.0008395984, -9.999376, 0, 0, 31.3771, 1, 1, 760, 800
 116974025, 0, 0.000137595, 0.0007090294, 0.00134032, -0.002498351, 0.001329905, -9.935577, 0, 0, 31.37887, 1, 1, 1000, 1000
 116974025, 1, 0.0002308136, 0.0005588435, 0.001387465, -0.003226416, -0.00181858, -9.935834, 0, 0, 31.37892, 1, 1, 760, 800
 117014009, 0, -0.002017503, -0.0007798811, 0.001381004, -0.003164232, 0.0002803815, -9.883801, 0, 0, 31.38069, 1, 1, 1000, 1000
 117014009, 1, -0.002114663, -0.0006653733, 0.001360476, -0.002643251, -0.0004245117, -9.882637, 0, 0, 31.38073, 1, 1, 760, 800
 117053993, 0, 0.001180894, 0.002658002, 0.001410997, -0.00120643, -1.54106E-05, -9.833552, 0, 0, 31.3825, 1, 1, 1000, 1000
 117053993, 1, 0.001155032, 0.002559477, 0.001511797, -0.001525622, 0.001383176, -9.83201, 0, 0, 31.3825, 1, 1, 760, 800
 117093977, 0, -0.0006475966, 0.0007734207, 0.001464371, -0.00175101, 0.0004607991, -9.797645, 0, 0, 31.38432, 1, 1, 1000, 1000
 117093977, 1, -0.0005465168, 0.0008731527, 0.001509442, -0.003328783, -0.0004920474, -9.796152, 0, 0, 31.38432, 1, 1, 760, 800
 117133961, 0, 0.001327661, 2.756144E-05, 0.001361595, -0.003032053, -0.000588362, -9.767105, 0, 0, 31.38613, 1, 1, 1000, 1000
 117133961, 1, 0.001197374, 0.0002278056, 0.00154766, -0.003979024, 0.00285126, -9.767146, 0, 0, 31.38613, 1, 1, 760, 800
 117173945, 0, 0.003056122, 0.002930218, 0.001451599, -0.003298508, 0.0005575664, -9.742777, 0, 0, 31.38795, 1, 1, 1000, 1000
 117173945, 1, 0.0032597, 0.002841445, 0.001451253, -0.002910855, 0.0004807247, -9.74286, 0, 0, 31.38795, 1, 1, 760, 800
 117213929, 0, 0.0001223689, 0.0005935446, 0.001476897, -0.001993207, 3.738138E-05, -9.727729, 0, 0, 31.38976, 1, 1, 1000, 1000
 117213929, 1, 0.0001229819, 0.0005322695, 0.001230249, 0.0004979755, 0.002039334, -9.72951, 0, 0, 31.38976, 1, 1, 760, 800
 117253913, 0, 0.004345902, 0.003740296, 0.00149906, -0.001521369, -0.0003521468, -9.696074, 0, 0, 31.39158, 1, 1, 1000, 1000
 117253913, 1, 0.00453313, 0.003593406, 0.001478854, 0.0004905717, -0.0002593792, -9.695902, 0, 0, 31.39158, 1, 1, 760, 800
 117293897, 0, 0.004158776, 0.00361019, 0.001424897, -0.002347217, 0.000247458, -9.699631, 0, 0, 31.39339, 1, 1, 1000, 1000
 117293897, 1, 0.004319227, 0.003644701, 0.001339223, -0.002808073, 0.0005570285, -9.698498, 0, 0, 31.39339, 1, 1, 760, 800
 117333881, 0, 0.0007630376, 0.0006386697, 0.001432551, -0.002413857, 0.0003666164, -9.684484, 0, 0, 31.39521, 1, 1, 1000, 1000
 117333881, 1, 0.0007597356, 0.000743545, 0.001446462, -0.001449765, -0.0007156223, -9.685744, 0, 0, 31.39521, 1, 1, 760, 800
 117373865, 0, -4.039596E-05, 2.759314E-05, 0.0014567, -0.002155404, 9.308371E-05, -9.6772, 0, 0, 31.39702, 1, 1, 1000, 1000
 117373865, 1, 5.56089E-05, 0.0001085435, 0.001467894, -0.0005351567, 0.0009225354, -9.67646, 0, 0, 31.39702, 1, 1, 760, 800
 117413849, 0, -0.0002118481, -0.0003215016, 0.001599846, -0.001594226, 0.0002586022, -9.675819, 0, 0, 31.39883, 1, 1, 1000, 1000
 117413849, 1, -0.0001941335, -0.0003884231, 0.001712946, -0.001436265, -0.0001669518, -9.675786, 0, 0, 31.39883, 1, 1, 760, 800
 117453833, 0, 0.00118448, -0.000268312, 0.001672796, -0.002809293, 0.0005415452, -9.676596, 0, 0, 31.40065, 1, 1, 1000, 1000
 117453833, 1, 0.001245934, -0.000275879, 0.001855923, 0.0008030416, -0.001518871, -9.679224, 0, 0, 31.40065, 1, 1, 760, 800
 117493817, 0, 0.004246944, 0.003056529, 0.001662363, -0.00201462, -0.0002934647, -9.684786, 0, 0, 31.40246, 1, 1, 1000, 1000
 117493817, 1, 0.004094114, 0.003192767, 0.001586034, -0.002328302, 0.002015676, -9.684149, 0, 0, 31.40241, 1, 1, 760, 800
 117533801, 0, 0.004070825, 0.003656302, 0.001645315, -0.001540847, 0.0005562471, -9.685673, 0, 0, 31.40427, 1, 1, 1000, 1000
 117533801, 1, 0.003695664, 0.003672723, 0.001794809, -0.00192643, -0.001719452, -9.683745, 0, 0, 31.40423, 1, 1, 760, 800
 117573785, 0, 0.003531382, 0.00434879, 0.001775714, -0.001955112, 0.001238327, -9.69833, 0, 0, 31.40609, 1, 1, 1000, 1000
 117573785, 1, 0.003653986, 0.004375721, 0.001573081, -0.001341047, 0.001689859, -9.698344, 0, 0, 31.40604, 1, 1, 760, 800
 117613769, 0, 0.002205432, 0.001563756, 0.001743894, -0.001218688, 0.0003187619, -9.700891, 0, 0, 31.4079, 1, 1, 1000, 1000
 117613769, 1, 0.002218421, 0.001696745, 0.001753983, -0.002109754, 0.001906557, -9.699787, 0, 0, 31.40785, 1, 1, 760, 800
 117653753, 0, 0.00417091, 0.004190678, 0.00178718, -0.002213174, 0.0003458509, -9.70837, 0, 0, 31.40971, 1, 1, 1000, 1000
 117653753, 1, 0.004347457, 0.004310885, 0.001525785, -0.001990349, -0.0004970387, -9.70817, 0, 0, 31.40966, 1, 1, 760, 800
 117693737, 0, 0.007019326, 0.00482339, 0.001684085, -0.001373906, 0.001550885, -9.715832, 0, 0, 31.41152, 1, 1, 1000, 1000
 117693737, 1, 0.006901609, 0.004844037, 0.001551297, -0.0006715352, -0.0009370482, -9.717096, 0, 0, 31.41148, 1, 1, 760, 800
 117733721, 0, 0.002788946, 0.005535361, 0.001599677, -0.0003561812, 0.0003161792, -9.726188, 0, 0, 31.41333, 1, 1, 1000, 1000
 117733721, 1, 0.002772366, 0.005552498, 0.001472999, -0.001209198, -0.001112691, -9.725475, 0, 0, 31.41329, 1, 1, 760, 800
 117773705, 0, 0.002927273, 0.00542813, 0.001591268, -0.00202493, -7.915952E-05, -9.726868, 0, 0, 31.41514, 1, 1, 1000, 1000
 117773705, 1, 0.002875519, 0.005441229, 0.001719724, 0.000154184, -0.002217817, -9.728348, 0, 0, 31.4151, 1, 1, 760, 800
 117814522, 0, 0.002946217, -0.001136254, 0.00145674, -0.001057694, -0.0002915333, -9.733906, 0, 0, 31.417, 1, 1, 1000, 1000
 117814522, 1, 0.002927209, -0.001102577, 0.001445493, -0.002772626, 0.0004144543, -9.732191, 0, 0, 31.417, 1, 1, 760, 800
 117854506, 0, 0.001968885, 0.000487605, 0.001231455, -0.001652009, 0.001037376, -9.747526, 0, 0, 31.41881, 1, 1, 1000, 1000
 117854506, 1, 0.001843404, 0.0005761932, 0.001193876, -0.004299699, -0.0008474825, -9.746428, 0, 0, 31.41881, 1, 1, 760, 800
 117894490, 0, 0.00427234, 0.00299536, 0.001189783, -0.001269003, -0.0004743696, -9.752515, 0, 0, 31.42062, 1, 1, 1000, 1000
 117894490, 1, 0.004286389, 0.002997226, 0.001291059, -0.001841133, 0.0005199753, -9.751771, 0, 0, 31.42062, 1, 1, 760, 800
 117934474, 0, 0.003338555, 0.002970711, 0.00117407, -0.00183453, 0.000189192, -9.763156, 0, 0, 31.42243, 1, 1, 1000, 1000
 117934474, 1, 0.003478159, 0.002829182, 0.001126344, -0.004113323, -0.00129225, -9.763218, 0, 0, 31.42243, 1, 1, 760, 800
 117974458, 0, 0.002646496, 0.003013592, 0.001217231, -0.002244929, -0.0005934974, -9.767423, 0, 0, 31.42424, 1, 1, 1000, 1000
 117974458, 1, 0.002566605, 0.002989979, 0.001127585, -0.0001947806, -0.0003158833, -9.7667, 0, 0, 31.42424, 1, 1, 760, 800
 118014442, 0, 0.002611702, -4.53277E-05, 0.001136943, -0.001880179, 2.86875E-05, -9.771587, 0, 0, 31.42605, 1, 1, 1000, 1000
 118014442, 1, 0.002730707, -2.725217E-05, 0.001240137, -0.002266874, 0.001310161, -9.769156, 0, 0, 31.42605, 1, 1, 760, 800
 118054426, 0, 0.002574717, 0.002500475, 0.0009862056, -0.002478628, -0.00105995, -9.775341, 0, 0, 31.42786, 1, 1, 1000, 1000
 118054426, 1, 0.002764527, 0.002601913, 0.0008365441, -0.002187528, 0.0009912902, -9.777464, 0, 0, 31.42786, 1, 1, 760, 800
 118094410, 0, 0.003241451, 0.003675241, 0.001055921, -0.001227948, 5.460552E-05, -9.794999, 0, 0, 31.42967, 1, 1, 1000, 1000
 118094410, 1, 0.003234105, 0.003851712, 0.0009621909, -0.001679133, 0.001570538, -9.794355, 0, 0, 31.42967, 1, 1, 760, 800
 118134394, 0, 0.002304529, 0.002850123, 0.00118167, -0.00148899, 0.0003831527, -9.797497, 0, 0, 31.43148, 1, 1, 1000, 1000
 118134394, 1, 0.002335553, 0.00274265, 0.001168777, 0.0001579934, -0.0001115347, -9.79595, 0, 0, 31.43148, 1, 1, 760, 800
 118174378, 0, 0.002590633, -0.0001145035, 0.001263909, -0.001274734, -0.0001249681, -9.805128, 0, 0, 31.43329, 1, 1, 1000, 1000
 118174378, 1, 0.002632279, -1.274385E-05, 0.00140303, -0.0007664167, 0.002371255, -9.803629, 0, 0, 31.43329, 1, 1, 760, 800
 118214362, 0, 0.002548511, 0.000112648, 0.001316377, -0.0008291798, 0.0002908414, -9.803252, 0, 0, 31.4351, 1, 1, 1000, 1000
 118214362, 1, 0.002535294, 0.0001608307, 0.001397202, -0.001350122, -0.001781434, -9.799982, 0, 0, 31.4351, 1, 1, 760, 800
 118254346, 0, 0.002527941, 0.0001024393, 0.001307139, -0.001974569, -0.0001179548, -9.802582, 0, 0, 31.43691, 1, 1, 1000, 1000
 118254346, 1, 0.00274856, 0.0001259603, 0.00123454, -0.0008483671, 0.0005060214, -9.803519, 0, 0, 31.43691, 1, 1, 760, 800
 118294330, 0, 0.0008525902, 0.00139737, 0.001238522, -0.001472838, 0.0004504001, -9.817279, 0, 0, 31.43872, 1, 1, 1000, 1000
 118294330, 1, 0.0009853146, 0.001513191, 0.001317127, -0.001041096, -0.001721222, -9.818146, 0, 0, 31.43872, 1, 1, 760, 800
 118334314, 0, -0.0003678139, 0.0008139727, 0.001257366, -0.001046329, -0.0002883788, -9.826996, 0, 0, 31.44053, 1, 1, 1000, 1000
 118334314, 1, -0.0004743126, 0.0008983032, 0.001192835, -0.0009826031, 0.001672499, -9.827749, 0, 0, 31.44053, 1, 1, 760, 800
 118374298, 0, -0.0008051218, 0.0008544642, 0.001219501, -0.001352689, -0.001138642, -9.826738, 0, 0, 31.44233, 1, 1, 1000, 1000
 118374298, 1, -0.0009014673, 0.0009801866, 0.001176552, -0.0006505577, -0.001435838, -9.824278, 0, 0, 31.44233, 1, 1, 760, 800
 118414282, 0, -0.001366494, 0.000373389, 0.001481974, -0.0001117299, -0.0009407802, -9.83028, 0, 0, 31.44414, 1, 1, 1000, 1000
 118414282, 1, -0.001316773, 0.0005364853, 0.0015132, 0.001732845, -0.0004452806, -9.830209, 0, 0, 31.44414, 1, 1, 760, 800
 118454266, 0, -0.001298068, 0.002522733, 0.001714212, 0.0006261034, -0.001149312, -9.831819, 0, 0, 31.44595, 1, 1, 1000, 1000
 118454266, 1, -0.001481373, 0.002604426, 0.001604547, -0.001594597, 0.00019526, -9.832606, 0, 0, 31.44595, 1, 1, 760, 800
 118494250, 0, -0.001188219, 0.00126128, 0.001764925, -0.001068686, -0.0003322082, -9.835307, 0, 0, 31.44775, 1, 1, 1000, 1000
 118494250, 1, -0.001051152, 0.001187072, 0.001850968, -0.0003204764, -0.001467363, -9.833748, 0, 0, 31.44775, 1, 1, 760, 800
 118534234, 0, -0.001114769, 0.001318413, 0.001754733, -0.001157767, -0.001650862, -9.835566, 0, 0, 31.44956, 1, 1, 1000, 1000
 118534234, 1, -0.001247572, 0.001279697, 0.001743723, -0.0006589069, 3.416331E-05, -9.834644, 0, 0, 31.44956, 1, 1, 760, 800
 118574218, 0, -0.001023482, 0.001311159, 0.001734246, -0.0009360368, -0.000455813, -9.835241, 0, 0, 31.45137, 1, 1, 1000, 1000
 118574218, 1, -0.001187763, 0.001239436, 0.001654135, -0.0007927167, -4.139068E-05, -9.836126, 0, 0, 31.45137, 1, 1, 760, 800
 118614202, 0, -0.0009396343, 0.001337705, 0.001808471, -0.000579848, -0.001498788, -9.833021, 0, 0, 31.45317, 1, 1, 1000, 1000
 118614202, 1, -0.0009237375, 0.001284019, 0.001643002, -0.001475452, -0.002256679, -9.833637, 0, 0, 31.45317, 1, 1, 760, 800
 118654186, 0, 0.003179496, 0.001332567, 0.001793642, -0.0006782169, -0.001601594, -9.834449, 0, 0, 31.45498, 1, 1, 1000, 1000
 118654186, 1, 0.003043754, 0.001504595, 0.001742959, -0.0008340342, -0.003708859, -9.83556, 0, 0, 31.45498, 1, 1, 760, 800
 118694170, 0, 0.005622891, 0.002230342, 0.001769756, -0.002058754, -0.0008282039, -9.846952, 0, 0, 31.45679, 1, 1, 1000, 1000
 118694170, 1, 0.005701744, 0.002251501, 0.001864844, 0.002034394, 0.0002601254, -9.845497, 0, 0, 31.45679, 1, 1, 760, 800
 118734154, 0, 0.004539676, 0.00157716, 0.001694659, -0.0009985195, -0.001123725, -9.845939, 0, 0, 31.45859, 1, 1, 1000, 1000
 118734154, 1, 0.004925689, 0.001873521, 0.001556879, -0.001987685, -0.0006759271, -9.848495, 0, 0, 31.45859, 1, 1, 760, 800
 118774138, 0, 0.004854748, 0.001281756, 0.001604588, -0.000874556, -0.0006331105, -9.847208, 0, 0, 31.4604, 1, 1, 1000, 1000
 118774138, 1, 0.004822803, 0.001487672, 0.00180681, 0.0004128318, -0.002857981, -9.844084, 0, 0, 31.4604, 1, 1, 760, 800
 118814122, 0, 0.003274652, -0.001157022, 0.001606148, -0.0001500034, -0.002047324, -9.84476, 0, 0, 31.46216, 1, 1, 1000, 1000
 118814122, 1, 0.003212966, -0.001050068, 0.001527779, 0.0007508863, -0.0006164151, -9.844446, 0, 0, 31.4622, 1, 1, 760, 800
 118854106, 0, 0.004345241, 0.002296051, 0.001589447, -0.0002148818, -0.001070947, -9.84444, 0, 0, 31.46396, 1, 1, 1000, 1000
 118854106, 1, 0.004247318, 0.002102512, 0.001651879, 0.00141507, -0.001843686, -9.846249, 0, 0, 31.46401, 1, 1, 760, 800
 118894090, 0, 0.004967934, 0.005225415, 0.001501793, -0.0002758549, -0.002959069, -9.847113, 0, 0, 31.46577, 1, 1, 1000, 1000
 118894090, 1, 0.005120125, 0.005237284, 0.001437179, 0.002896945, 0.0009051348, -9.848922, 0, 0, 31.46581, 1, 1, 760, 800
 118934074, 0, 0.00168259, 0.004321155, 0.001529241, 0.0003971207, -0.001400606, -9.847467, 0, 0, 31.46757, 1, 1, 1000, 1000
 118934074, 1, 0.001378574, 0.00435237, 0.001394912, -0.002488967, -0.001588762, -9.845138, 0, 0, 31.46762, 1, 1, 760, 800
 118974058, 0, 0.0004031738, 0.003678166, 0.001432493, 0.0002806457, -0.0002105379, -9.846406, 0, 0, 31.46938, 1, 1, 1000, 1000
 118974058, 1, 0.0004601738, 0.003752013, 0.001442471, -0.0008431369, -7.297675E-05, -9.846191, 0, 0, 31.46942, 1, 1, 760, 800
 119014042, 0, -0.002315418, 0.0007184575, 0.001357905, -0.001764332, -0.001971909, -9.848269, 0, 0, 31.47118, 1, 1, 1000, 1000
 119014042, 1, -0.00238237, 0.0007420575, 0.001502372, 0.0006324142, -0.002202285, -9.848213, 0, 0, 31.47123, 1, 1, 760, 800
 119054026, 0, -0.0003334033, 0.002939976, 0.001312414, -0.0003965238, -0.0009151339, -9.842725, 0, 0, 31.47298, 1, 1, 1000, 1000
 119054026, 1, -0.0002676113, 0.00308666, 0.001247897, -0.0001917016, -0.001409812, -9.844963, 0, 0, 31.47303, 1, 1, 760, 800
 119094010, 0, -0.0003920986, 0.002888478, 0.001253223, -0.0009476003, -0.002018644, -9.843035, 0, 0, 31.47479, 1, 1, 1000, 1000
 119094010, 1, -0.0003495726, 0.003005088, 0.001387682, 0.002379153, -0.001291174, -9.841803, 0, 0, 31.47483, 1, 1, 760, 800
 119133994, 0, 0.0005828661, 0.001124263, 0.001187393, -6.627243E-05, -0.001071158, -9.842427, 0, 0, 31.47659, 1, 1, 1000, 1000
 119133994, 1, 0.0005975761, 0.001125177, 0.001150584, -0.0001936588, -0.002113308, -9.842578, 0, 0, 31.47659, 1, 1, 760, 800
 119173978, 0, 0.0001371836, -7.666986E-05, 0.001223527, 0.0006106998, -0.001428714, -9.842539, 0, 0, 31.47839, 1, 1, 1000, 1000
 119173978, 1, 0.0001353396, 3.566789E-05, 0.001242553, 4.779452E-05, -0.001054367, -9.843029, 0, 0, 31.47839, 1, 1, 760, 800
 119213962, 0, -0.000974459, -0.002010223, 0.001240681, -0.0004861983, -0.002105574, -9.838436, 0, 0, 31.4802, 1, 1, 1000, 1000
 119213962, 1, -0.0009734107, -0.002059151, 0.001197135, -0.0005131937, -0.0008300235, -9.838978, 0, 0, 31.4802, 1, 1, 760, 800
 119253946, 0, 0.002297725, -0.000183843, 0.001171424, -1.959866E-05, -0.002329186, -9.836866, 0, 0, 31.482, 1, 1, 1000, 1000
 119253946, 1, 0.002196495, -0.0001941727, 0.00124807, 0.0008642504, -0.0009820848, -9.837416, 0, 0, 31.482, 1, 1, 760, 800
 119293930, 0, 0.003839525, 0.002631173, 0.001135235, 0.0002928239, -0.001389542, -9.833837, 0, 0, 31.4838, 1, 1, 1000, 1000
 119293930, 1, 0.003781438, 0.002697522, 0.001025877, -0.002167897, 0.0002662105, -9.833887, 0, 0, 31.4838, 1, 1, 760, 800
 119333914, 0, 0.001786792, 0.00257293, 0.001086456, 0.001042109, -0.002876467, -9.82345, 0, 0, 31.4856, 1, 1, 1000, 1000
 119333914, 1, 0.001954393, 0.002469913, 0.001133043, 0.002472637, -0.001293573, -9.823687, 0, 0, 31.4856, 1, 1, 760, 800
 119373898, 0, 0.002273629, 0.001853638, 0.001005543, -0.000102016, -0.002614119, -9.830801, 0, 0, 31.4874, 1, 1, 1000, 1000
 119373898, 1, 0.002225492, 0.001775698, 0.0009394882, -0.0008251922, 0.001884593, -9.830319, 0, 0, 31.4874, 1, 1, 760, 800
 119413882, 0, 0.000984275, 0.0007969004, 0.0009751592, 0.0004159049, -0.002233947, -9.837595, 0, 0, 31.48921, 1, 1, 1000, 1000
 119413882, 1, 0.001098457, 0.0008416817, 0.000799871, 0.0003367251, -0.0008150613, -9.83972, 0, 0, 31.48921, 1, 1, 760, 800
 119453866, 0, 0.00325223, 0.003034724, 0.001005941, 0.00020491, -0.002115709, -9.831484, 0, 0, 31.49101, 1, 1, 1000, 1000
 119453866, 1, 0.003240453, 0.002941083, 0.0009426806, 0.0001860419, -0.003258999, -9.833663, 0, 0, 31.49101, 1, 1, 760, 800
 119493850, 0, 0.004786787, 0.005114027, 0.000980407, -0.0004859552, -0.002766301, -9.83133, 0, 0, 31.49281, 1, 1, 1000, 1000
 119493850, 1, 0.004820308, 0.005249124, 0.0009752145, -0.0007504706, -0.0004361156, -9.830593, 0, 0, 31.49281, 1, 1, 760, 800
 119533834, 0, 0.001287954, 0.001290038, 0.0008993926, 0.0001998853, -0.002897926, -9.832007, 0, 0, 31.49461, 1, 1, 1000, 1000
 119533834, 1, 0.001248961, 0.0013868, 0.001045842, 0.001120681, -0.003100751, -9.83391, 0, 0, 31.49461, 1, 1, 760, 800
 119573818, 0, 0.001039548, 0.0002069744, 0.0008745165, 0.0003115793, -0.002776188, -9.822705, 0, 0, 31.49641, 1, 1, 1000, 1000
 119573818, 1, 0.0009465343, 0.0004563936, 0.0009329445, -0.0005937602, 0.0002986014, -9.824344, 0, 0, 31.49636, 1, 1, 760, 800
 119613802, 0, -0.0001660063, 0.0002406967, 0.000960839, 0.0002346445, -0.003081264, -9.823745, 0, 0, 31.49821, 1, 1, 1000, 1000
 119613802, 1, -7.492684E-05, 0.0002753379, 0.0009311797, -0.0002877954, -0.003138634, -9.820888, 0, 0, 31.49817, 1, 1, 760, 800
 119653786, 0, 0.002532511, 0.001322806, 0.001130288, -0.0007692495, -0.001072351, -9.828854, 0, 0, 31.50001, 1, 1, 1000, 1000
 119653786, 1, 0.002548682, 0.001359364, 0.001015009, -0.00018745, -0.002090671, -9.829308, 0, 0, 31.49997, 1, 1, 760, 800
 119693770, 0, 0.003635078, 0.00318154, 0.001320358, -0.0003996925, -0.003138256, -9.827866, 0, 0, 31.50181, 1, 1, 1000, 1000
 119693770, 1, 0.003769737, 0.003334054, 0.001372967, 0.0005013339, -0.002052764, -9.826346, 0, 0, 31.50177, 1, 1, 760, 800
 119733754, 0, 0.002678609, 0.00323738, 0.001523127, -0.0004430187, -0.002535714, -9.826163, 0, 0, 31.50361, 1, 1, 1000, 1000
 119733754, 1, 0.00282277, 0.003266807, 0.001534517, 0.000856903, -0.003285013, -9.824631, 0, 0, 31.50356, 1, 1, 760, 800
 119773738, 0, 0.002106005, 0.003083532, 0.001800717, 0.0005567734, -0.002081476, -9.827188, 0, 0, 31.50541, 1, 1, 1000, 1000
 119773738, 1, 0.001968767, 0.002928837, 0.001705401, 0.0007042909, -0.003940636, -9.830359, 0, 0, 31.50536, 1, 1, 760, 800
 119813722, 0, 0.0008597291, -0.0009435872, 0.001922754, 0.0004925411, -0.001637509, -9.825395, 0, 0, 31.50721, 1, 1, 1000, 1000
 119813722, 1, 0.0006982094, -0.0009302662, 0.001961572, 0.0005197652, -0.004761193, -9.824605, 0, 0, 31.50716, 1, 1, 760, 800
 119853706, 0, 0.003062994, 0.0001430031, 0.002187304, 0.0001985743, -0.001896266, -9.825616, 0, 0, 31.50901, 1, 1, 1000, 1000
 119853706, 1, 0.002960605, 0.0004236905, 0.002065687, -0.0004713826, -0.002874163, -9.824962, 0, 0, 31.50896, 1, 1, 760, 800
 119894523, 0, 0.004663048, 0.005266487, 0.002220726, 0.001194382, -0.002839792, -9.823656, 0, 0, 31.51085, 1, 1, 1000, 1000
 119894523, 1, 0.004581628, 0.005426968, 0.002224283, -0.0008770248, -0.00404867, -9.824257, 0, 0, 31.51085, 1, 1, 760, 800
 119934507, 0, 0.002156802, 0.002440681, 0.002278786, 0.0004915819, -0.001971476, -9.818304, 0, 0, 31.51265, 1, 1, 1000, 1000
 119934507, 1, 0.002168329, 0.002583361, 0.002424259, 0.0007733247, -0.003932503, -9.819036, 0, 0, 31.51265, 1, 1, 760, 800
 119974491, 0, 0.002297855, 0.002620664, 0.002295738, 6.050974E-05, -0.003441086, -9.819283, 0, 0, 31.51445, 1, 1, 1000, 1000
 119974491, 1, 0.002309427, 0.002681362, 0.002105968, -0.001060304, -0.005859256, -9.819793, 0, 0, 31.51445, 1, 1, 760, 800
 120014475, 0, 0.0002134703, -0.0008718426, 0.002226194, 0.0001348717, -0.003315315, -9.822534, 0, 0, 31.51625, 1, 1, 1000, 1000
 120014475, 1, 0.0002457474, -0.0008000694, 0.002147224, -0.0002680562, -0.002414993, -9.822792, 0, 0, 31.51625, 1, 1, 760, 800
 120054459, 0, 0.0003134814, 0.0009765526, 0.002003942, 0.0009923168, -0.002998966, -9.819894, 0, 0, 31.51804, 1, 1, 1000, 1000
 120054459, 1, 0.0002818488, 0.00116579, 0.00210537, -0.001620232, -0.002941029, -9.821562, 0, 0, 31.51804, 1, 1, 760, 800
 120094443, 0, 0.0003751061, 0.005506097, 0.001826161, 0.001226321, -0.002729314, -9.822558, 0, 0, 31.51984, 1, 1, 1000, 1000
 120094443, 1, 0.0002884353, 0.005602914, 0.001805258, 0.002673529, -0.003102745, -9.822717, 0, 0, 31.51984, 1, 1, 760, 800
 120134427, 0, 0.0004662983, 0.003382596, 0.001891125, -0.0001201496, -0.002253748, -9.817414, 0, 0, 31.52164, 1, 1, 1000, 1000
