Time,IMU_I,IMU_GyrX,IMU_GyrY,IMU_GyrZ,IMU_AccX,IMU_AccY,IMU_AccZ,IMU_EG,IMU_EA,IMU_T,IMU_GH,IMU_AH,IMU_GHz,IMU_AHz
 705840884, 0, 0.001510902, 0.001466215, 0.001522171, -0.0008352606, -0.0009275508, -9.817382, 0, 0, 43.08689, 1, 1, 999, 999
 705840884, 1, 0.001647791, 0.001590227, 0.001774496, -0.00229092, -0.002110229, -9.818542, 0, 0, 43.08689, 1, 1, 760, 800
 705880868, 0, 0.001611548, 0.001486457, 0.001446128, -0.001391191, -0.001410493, -9.817402, 0, 0, 43.08714, 1, 1, 999, 999
 705880868, 1, 0.001564862, 0.001678875, 0.001523173, -0.001157004, -0.0002216548, -9.818773, 0, 0, 43.08714, 1, 1, 760, 800
 705920852, 0, 0.001576154, 0.001512504, 0.001471552, -0.00170937, -0.00140162, -9.817291, 0, 0, 43.08739, 1, 1, 999, 999
 705920852, 1, 0.001586632, 0.001553617, 0.00163864, -0.003942075, -0.002719618, -9.817256, 0, 0, 43.08739, 1, 1, 760, 800
 705960836, 0, 0.00151747, 0.001488278, 0.001493493, 2.807818E-05, -0.001127842, -9.818301, 0, 0, 43.08765, 1, 1, 999, 999
 705960836, 1, 0.001619231, 0.001492869, 0.001287083, -0.001390887, 0.0001267019, -9.817842, 0, 0, 43.08765, 1, 1, 760, 800
 706000820, 0, 0.001572262, 0.001505014, 0.001553316, -0.002032401, -0.0009834669, -9.817599, 0, 0, 43.08791, 1, 1, 999, 999
 706000820, 1, 0.001475167, 0.001756716, 0.001541042, -0.001184511, -0.002731861, -9.818568, 0, 0, 43.08791, 1, 1, 760, 800
 706040804, 0, 0.001495562, 0.001461526, 0.001461244, -0.001513945, -0.002120562, -9.817531, 0, 0, 43.08816, 1, 1, 999, 999
 706040804, 1, 0.00191578, 0.00135032, 0.001736383, 0.001447089, -0.001387801, -9.816668, 0, 0, 43.08816, 1, 1, 760, 800
 706080788, 0, 0.001514847, 0.001473335, 0.001439262, -0.001609612, -0.0004917237, -9.816792, 0, 0, 43.08842, 1, 1, 999, 999
 706080788, 1, 0.001358503, 0.001559244, 0.001670206, -0.002130695, -0.002096293, -9.816962, 0, 0, 43.08842, 1, 1, 760, 800
 706120772, 0, 0.001540959, 0.001468525, 0.001559996, -0.0003679323, -0.0007144093, -9.816276, 0, 0, 43.08867, 1, 1, 999, 999
 706120772, 1, 0.001830658, 0.001495882, 0.0013771, -7.195673E-05, -0.001486939, -9.815365, 0, 0, 43.08867, 1, 1, 760, 800
 706161589, 0, 0.001479285, 0.001596875, 0.001586006, -0.001549679, -0.001131585, -9.817603, 0, 0, 43.08893, 1, 1, 999, 999
 706161589, 1, 0.001247277, 0.001392201, 0.001282858, -0.001290666, -0.001642985, -9.817131, 0, 0, 43.08893, 1, 1, 760, 800
 706201573, 0, 0.001481215, 0.001524215, 0.001495441, -0.002340924, -0.001258679, -9.817286, 0, 0, 43.08919, 1, 1, 1000, 1000
 706201573, 1, 0.001539188, 0.001659265, 0.001520019, -0.003243484, 0.00107848, -9.816583, 0, 0, 43.08919, 1, 1, 760, 800
 706241557, 0, 0.001474814, 0.001520544, 0.001489028, -0.001175278, -0.0006890818, -9.818346, 0, 0, 43.08944, 1, 1, 1000, 1000
 706241557, 1, 0.001342366, 0.001681038, 0.001469262, -0.004270097, -0.0005943284, -9.818, 0, 0, 43.08944, 1, 1, 760, 800
 706281541, 0, 0.001513327, 0.001528107, 0.001571273, -0.0008387497, -0.0003626252, -9.817954, 0, 0, 43.08969, 1, 1, 1000, 1000
 706281541, 1, 0.001382711, 0.001673179, 0.001188161, -0.002655787, -0.0006555946, -9.815339, 0, 0, 43.08969, 1, 1, 760, 800
 706321525, 0, 0.001647481, 0.001580101, 0.001554646, -0.001184962, -0.000363764, -9.817724, 0, 0, 43.08995, 1, 1, 1000, 1000
 706321525, 1, 0.00157618, 0.001647785, 0.001564636, -0.001588843, -0.002059504, -9.818423, 0, 0, 43.08995, 1, 1, 760, 800
 706361509, 0, 0.001496083, 0.001496373, 0.001505701, -0.0006641448, -0.0006363566, -9.817937, 0, 0, 43.09021, 1, 1, 1000, 1000
 706361509, 1, 0.001365114, 0.001700768, 0.001565328, -1.059404E-05, -0.0004021367, -9.816566, 0, 0, 43.09021, 1, 1, 760, 800
 706401493, 0, 0.001480996, 0.001559104, 0.001427626, -0.0004724723, -0.001407961, -9.818266, 0, 0, 43.09046, 1, 1, 1000, 1000
 706401493, 1, 0.001623615, 0.001638259, 0.001422378, -0.001606965, -0.002211182, -9.815062, 0, 0, 43.09046, 1, 1, 760, 800
 706441477, 0, 0.001573377, 0.00157459, 0.001507449, -0.00137746, -0.002042447, -9.816605, 0, 0, 43.09071, 1, 1, 1000, 1000
 706441477, 1, 0.001392399, 0.00167914, 0.001510411, 0.0002614913, 0.002855606, -9.819868, 0, 0, 43.09071, 1, 1, 760, 800
 706481461, 0, 0.001503702, 0.00152302, 0.001540633, -0.0008431912, -0.00182766, -9.8178, 0, 0, 43.09097, 1, 1, 1000, 1000
 706481461, 1, 0.001358236, 0.001687062, 0.001463849, 0.0004517795, -0.003074915, -9.818548, 0, 0, 43.09097, 1, 1, 760, 800
 706521445, 0, 0.001547501, 0.001494999, 0.001567903, -5.986303E-05, -0.002285226, -9.817876, 0, 0, 43.09122, 1, 1, 1000, 1000
 706521445, 1, 0.001573536, 0.001481879, 0.001589339, -0.0002999424, -0.0004994202, -9.818167, 0, 0, 43.09122, 1, 1, 760, 800
 706561429, 0, 0.001518869, 0.001570388, 0.001462655, -0.0003698086, -0.0005017921, -9.817874, 0, 0, 43.09148, 1, 1, 1000, 1000
 706561429, 1, 0.001748291, 0.001580131, 0.001566554, 0.0001392527, -0.001148869, -9.816591, 0, 0, 43.09148, 1, 1, 760, 800
 706601413, 0, 0.001484077, 0.001528071, 0.001545213, -0.001212649, -0.001865145, -9.81698, 0, 0, 43.09173, 1, 1, 1000, 1000
 706601413, 1, 0.001543238, 0.001683495, 0.001344174, -0.001911712, 0.001228779, -9.818201, 0, 0, 43.09173, 1, 1, 760, 800
 706641397, 0, 0.001536158, 0.001522935, 0.001540316, -0.000956322, -0.0001380398, -9.817314, 0, 0, 43.09199, 1, 1, 1000, 1000
 706641397, 1, 0.001422968, 0.001808395, 0.001753832, 0.0005383286, 0.0008223595, -9.81774, 0, 0, 43.09199, 1, 1, 760, 800
 706681381, 0, 0.001575405, 0.001529269, 0.001596842, -0.0007989124, -0.0007952412, -9.818938, 0, 0, 43.09224, 1, 1, 1000, 1000
 706681381, 1, 0.001574616, 0.001779326, 0.001385446, -0.0002788207, -5.600832E-05, -9.817724, 0, 0, 43.09224, 1, 1, 760, 800
 706721365, 0, 0.001503977, 0.001555693, 0.001528645, -0.001413234, -0.001587587, -9.817368, 0, 0, 43.09249, 1, 1, 1000, 1000
 706721365, 1, 0.001739696, 0.00171606, 0.001675625, -4.207134E-05, -0.001324949, -9.817246, 0, 0, 43.09249, 1, 1, 760, 800
 706761349, 0, 0.001489399, 0.00156836, 0.001428975, 0.0003817708, -0.0007445621, -9.81592, 0, 0, 43.09275, 1, 1, 1000, 1000
 706761349, 1, 0.001380387, 0.001561406, 0.001563458, -0.002692639, -0.002438936, -9.815947, 0, 0, 43.09274, 1, 1, 760, 800
 706801333, 0, 0.001562094, 0.001535988, 0.001490581, -0.001115985, -0.000661274, -9.817893, 0, 0, 43.09301, 1, 1, 1000, 1000
 706801333, 1, 0.001679993, 0.001558469, 0.001497877, -0.0008222109, -0.001823148, -9.81861, 0, 0, 43.093, 1, 1, 760, 800
 706841317, 0, 0.001537715, 0.001525022, 0.001467049, -0.001586789, -0.0009507153, -9.817839, 0, 0, 43.09326, 1, 1, 1000, 1000
 706841317, 1, 0.001412981, 0.001783812, 0.00180831, -0.002087909, -0.004138377, -9.815804, 0, 0, 43.09325, 1, 1, 760, 800
 706881301, 0, 0.001512532, 0.001526222, 0.00151121, -0.0014487, -0.001642134, -9.818352, 0, 0, 43.09351, 1, 1, 1000, 1000
 706881301, 1, 0.001605387, 0.001585104, 0.001474097, 0.0007622716, -0.0002141721, -9.817035, 0, 0, 43.09351, 1, 1, 760, 800
 706921285, 0, 0.001550828, 0.001535275, 0.001492427, -0.001394157, -0.000862963, -9.817236, 0, 0, 43.09377, 1, 1, 1000, 1000
 706921285, 1, 0.001740144, 0.001414207, 0.001366564, -0.001709761, -0.0019057, -9.818399, 0, 0, 43.09376, 1, 1, 760, 800
 706961269, 0, 0.001523102, 0.001581886, 0.001516068, -0.001478805, -0.001342505, -9.816733, 0, 0, 43.09402, 1, 1, 1000, 1000
 706961269, 1, 0.001475569, 0.001959766, 0.001463694, -0.0004435478, -0.001047939, -9.816455, 0, 0, 43.09402, 1, 1, 760, 800
 707001253, 0, 0.001514664, 0.00149348, 0.001571189, -0.001124384, -0.00205612, -9.816698, 0, 0, 43.09428, 1, 1, 1000, 1000
 707001253, 1, 0.001324384, 0.001477517, 0.00148694, -0.00423055, -0.003097759, -9.816256, 0, 0, 43.09427, 1, 1, 760, 800
 707041237, 0, 0.001565331, 0.001608562, 0.001589696, -0.000187646, -0.001649037, -9.817839, 0, 0, 43.09453, 1, 1, 1000, 1000
 707041237, 1, 0.001439835, 0.001443231, 0.00147531, -0.001174011, -0.002495066, -9.817691, 0, 0, 43.09452, 1, 1, 760, 800
 707081221, 0, 0.001501238, 0.0016149, 0.001559885, -0.0006425561, -0.002191059, -9.817473, 0, 0, 43.09478, 1, 1, 1000, 1000
 707081221, 1, 0.001509289, 0.001358343, 0.001630028, -0.0009350675, 0.0005834145, -9.819476, 0, 0, 43.09478, 1, 1, 760, 800
 707121205, 0, 0.001587856, 0.001572756, 0.001573738, -0.0007947605, -0.001905165, -9.817888, 0, 0, 43.09504, 1, 1, 1000, 1000
 707121205, 1, 0.001581693, 0.001504668, 0.001678246, -0.001845937, -0.001571295, -9.819367, 0, 0, 43.09503, 1, 1, 760, 800
 707161189, 0, 0.001530178, 0.001554078, 0.001599744, -0.001665718, -0.0005264576, -9.816957, 0, 0, 43.09529, 1, 1, 1000, 1000
 707161189, 1, 0.001242822, 0.001267746, 0.001623457, 0.001772857, -0.001690508, -9.818356, 0, 0, 43.09528, 1, 1, 760, 800
 707201173, 0, 0.001511752, 0.00149622, 0.001518907, -0.001821609, -0.001357983, -9.817941, 0, 0, 43.09555, 1, 1, 999, 999
 707201173, 1, 0.001541292, 0.001796532, 0.001547038, -0.002761018, 0.001949509, -9.818727, 0, 0, 43.09554, 1, 1, 760, 800
 707241157, 0, 0.001515421, 0.001612846, 0.001543843, -0.0007665408, -0.001646742, -9.817304, 0, 0, 43.0958, 1, 1, 999, 999
 707241157, 1, 0.001546532, 0.00148659, 0.001509375, 9.736925E-05, -0.001912035, -9.819061, 0, 0, 43.09579, 1, 1, 760, 800
 707281141, 0, 0.00145997, 0.001512041, 0.001591288, -0.002242638, -0.0002740739, -9.818481, 0, 0, 43.09605, 1, 1, 999, 999
 707281141, 1, 0.001627177, 0.001571545, 0.00150423, -0.002806654, -0.0003006035, -9.816875, 0, 0, 43.09605, 1, 1, 760, 800
 707321125, 0, 0.00156597, 0.001502683, 0.001567726, -0.001469049, -0.001187664, -9.81815, 0, 0, 43.0963, 1, 1, 999, 999
 707321125, 1, 0.001690218, 0.001822751, 0.001685885, -0.0002167619, 0.0004224638, -9.819197, 0, 0, 43.0963, 1, 1, 760, 800
 707361109, 0, 0.001559923, 0.001528227, 0.001514479, -0.0008992846, -0.001562608, -9.81806, 0, 0, 43.09655, 1, 1, 999, 999
 707361109, 1, 0.001327665, 0.001682982, 0.001592996, -7.070403E-05, -0.000848425, -9.81636, 0, 0, 43.09655, 1, 1, 760, 800
 707401093, 0, 0.001551026, 0.001606486, 0.001558595, -0.0001663181, -0.0006668788, -9.81793, 0, 0, 43.09681, 1, 1, 999, 999
 707401093, 1, 0.001429715, 0.001690038, 0.001572789, 0.001768222, -0.0004933074, -9.817223, 0, 0, 43.09681, 1, 1, 760, 800
 707441077, 0, 0.001520824, 0.001522501, 0.001608603, -0.0002592658, -0.0006194685, -9.817698, 0, 0, 43.09706, 1, 1, 999, 999
 707441077, 1, 0.001474184, 0.001533485, 0.00165903, -0.001410277, 0.0003908874, -9.819931, 0, 0, 43.09706, 1, 1, 760, 800
 707481061, 0, 0.001445983, 0.001546894, 0.001460683, -0.001661473, -0.001854572, -9.818294, 0, 0, 43.09732, 1, 1, 999, 999
 707481061, 1, 0.001459926, 0.001681788, 0.001591366, 0.0003195473, -0.00344434, -9.815368, 0, 0, 43.09732, 1, 1, 760, 800
 707521045, 0, 0.001524183, 0.001591995, 0.00157664, -0.00145972, -0.001243031, -9.818007, 0, 0, 43.09757, 1, 1, 999, 999
 707521045, 1, 0.001401663, 0.001372067, 0.001773662, -0.0004175782, -0.0001740061, -9.819626, 0, 0, 43.09757, 1, 1, 760, 800
 707561029, 0, 0.001614156, 0.001562039, 0.001472451, -0.00138792, -0.0005479879, -9.816841, 0, 0, 43.09782, 1, 1, 999, 999
 707561029, 1, 0.001518153, 0.001689427, 0.001767704, -0.0005743604, 0.002047525, -9.818308, 0, 0, 43.09782, 1, 1, 760, 800
 707601013, 0, 0.001521286, 0.001578231, 0.001596111, -0.001121095, 0.0007770729, -9.817572, 0, 0, 43.09808, 1, 1, 999, 999
 707601013, 1, 0.001658822, 0.001590032, 0.001497064, -0.002019159, -0.00295589, -9.81752, 0, 0, 43.09808, 1, 1, 760, 800
 707640997, 0, 0.001589009, 0.001611405, 0.001487071, -0.0016009, -0.001342927, -9.817803, 0, 0, 43.09833, 1, 1, 999, 999
 707640997, 1, 0.00158352, 0.001610418, 0.001361851, -0.001210043, 7.324656E-05, -9.817804, 0, 0, 43.09833, 1, 1, 760, 800
 707680981, 0, 0.001502699, 0.001476372, 0.00155123, -0.00194567, -0.001361073, -9.818028, 0, 0, 43.09858, 1, 1, 999, 999
 707680981, 1, 0.001528978, 0.001523351, 0.001432384, 0.000190792, -0.00057594, -9.816462, 0, 0, 43.09858, 1, 1, 760, 800
 707720965, 0, 0.001516373, 0.001491649, 0.001510935, -0.0002027041, -0.0002338542, -9.816195, 0, 0, 43.09884, 1, 1, 999, 999
 707720965, 1, 0.001446163, 0.001648073, 0.001401844, -0.000471527, -0.0009882519, -9.817823, 0, 0, 43.09884, 1, 1, 760, 800
 707760949, 0, 0.001553475, 0.001594878, 0.001596353, -0.0006336949, -0.0009997727, -9.817225, 0, 0, 43.09909, 1, 1, 999, 999
 707760949, 1, 0.001469065, 0.00147059, 0.001713309, -0.002050503, -0.002426458, -9.816791, 0, 0, 43.09909, 1, 1, 760, 800
 707800933, 0, 0.001580352, 0.001518723, 0.001539061, -0.001065584, -0.000614802, -9.81776, 0, 0, 43.09935, 1, 1, 999, 999
 707800933, 1, 0.0015844, 0.001466339, 0.001829056, 0.0007969261, -0.001707692, -9.817456, 0, 0, 43.09935, 1, 1, 760, 800
 707840917, 0, 0.001527192, 0.001593416, 0.00160044, -0.001033211, -0.0004701173, -9.817768, 0, 0, 43.0996, 1, 1, 999, 999
 707840917, 1, 0.001544698, 0.00145957, 0.001341959, -0.001237121, 0.001064861, -9.818241, 0, 0, 43.0996, 1, 1, 760, 800
 707880901, 0, 0.001532994, 0.001613694, 0.001558418, -0.0004286745, -0.001257357, -9.818912, 0, 0, 43.09985, 1, 1, 999, 999
 707880901, 1, 0.001807843, 0.001483037, 0.001525606, -0.001538117, -0.002610589, -9.817216, 0, 0, 43.09985, 1, 1, 760, 800
 707920885, 0, 0.001586157, 0.001623125, 0.001562517, -7.096766E-05, -0.0007612401, -9.817177, 0, 0, 43.10011, 1, 1, 999, 999
 707920885, 1, 0.001532265, 0.0014569, 0.001453935, -0.003155897, -0.0001075173, -9.817885, 0, 0, 43.10011, 1, 1, 760, 800
 707960869, 0, 0.001485962, 0.001510183, 0.001554049, -0.0009188636, -0.001894528, -9.816896, 0, 0, 43.10036, 1, 1, 999, 999
 707960869, 1, 0.001696341, 0.001611832, 0.001364357, -0.001453929, -0.0009215843, -9.81776, 0, 0, 43.10036, 1, 1, 760, 800
 708000853, 0, 0.001570707, 0.001488415, 0.001530739, -0.001204057, -0.0003491925, -9.81715, 0, 0, 43.10061, 1, 1, 999, 999
 708000853, 1, 0.001550399, 0.001782294, 0.001763637, -0.002782129, -0.0007459673, -9.815399, 0, 0, 43.10061, 1, 1, 760, 800
 708040837, 0, 0.001598607, 0.001540055, 0.001517062, -2.739433E-05, -0.0006762649, -9.817253, 0, 0, 43.10086, 1, 1, 999, 999
 708040837, 1, 0.001473838, 0.001833805, 0.001369693, -0.003695456, -0.00231786, -9.817539, 0, 0, 43.10086, 1, 1, 760, 800
 708080821, 0, 0.001591482, 0.001497935, 0.001564219, -0.0006994036, -0.001167791, -9.817486, 0, 0, 43.10112, 1, 1, 999, 999
 708080821, 1, 0.001518114, 0.001490551, 0.001421609, -0.003413861, -0.002531093, -9.816505, 0, 0, 43.10112, 1, 1, 760, 800
 708120805, 0, 0.001525752, 0.001556883, 0.001551655, -0.001031146, -0.001312934, -9.816978, 0, 0, 43.10137, 1, 1, 999, 999
 708120805, 1, 0.001673119, 0.00171447, 0.001820563, -0.003044332, -0.002530426, -9.817933, 0, 0, 43.10137, 1, 1, 760, 800
 708160789, 0, 0.001543321, 0.001581939, 0.001507441, 6.793093E-05, -0.0004162682, -9.817275, 0, 0, 43.10162, 1, 1, 999, 999
 708160789, 1, 0.001634986, 0.001624968, 0.001525773, -0.00171688, -0.001762401, -9.819051, 0, 0, 43.10162, 1, 1, 760, 800
 708200773, 0, 0.001594008, 0.001552626, 0.001494472, -0.0007401485, -0.001252314, -9.817823, 0, 0, 43.10188, 1, 1, 999, 999
 708200773, 1, 0.00166531, 0.00177265, 0.001544695, 0.002128535, -0.0006941521, -9.816639, 0, 0, 43.10188, 1, 1, 760, 800
 708241590, 0, 0.001499773, 0.001585001, 0.001597401, -0.001418899, -0.0006013252, -9.818812, 0, 0, 43.10213, 1, 1, 999, 999
 708241590, 1, 0.001599104, 0.001747361, 0.001584961, -0.002757759, 0.001404797, -9.81415, 0, 0, 43.10213, 1, 1, 760, 800
 708281574, 0, 0.001563044, 0.001534637, 0.001561753, -0.001698153, -0.001919746, -9.816806, 0, 0, 43.10239, 1, 1, 999, 999
 708281574, 1, 0.001544646, 0.001471457, 0.001595768, 0.001731372, -0.0005219368, -9.815564, 0, 0, 43.10239, 1, 1, 760, 800
 708321558, 0, 0.001601604, 0.001505723, 0.001592065, 0.000683133, -0.001131101, -9.81845, 0, 0, 43.10264, 1, 1, 999, 999
 708321558, 1, 0.001342809, 0.001517337, 0.001921406, 0.0005038818, 0.001959938, -9.819577, 0, 0, 43.10264, 1, 1, 760, 800
 708361542, 0, 0.0015654, 0.00158077, 0.001542561, -0.001017622, -0.001172596, -9.817175, 0, 0, 43.10289, 1, 1, 999, 999
 708361542, 1, 0.001842991, 0.001448124, 0.001776463, -0.001324323, -0.0003035865, -9.815467, 0, 0, 43.10289, 1, 1, 760, 800
 708401526, 0, 0.001519963, 0.001536828, 0.001536119, -0.001016555, -0.000258124, -9.817217, 0, 0, 43.10315, 1, 1, 999, 999
 708401526, 1, 0.001464616, 0.001460949, 0.00151505, -0.000351949, -0.002487458, -9.820114, 0, 0, 43.10315, 1, 1, 760, 800
 708441510, 0, 0.001595785, 0.001502229, 0.001548229, -0.001328614, -0.0006178973, -9.817405, 0, 0, 43.1034, 1, 1, 999, 999
 708441510, 1, 0.001627197, 0.00167906, 0.001733007, -0.001047927, -0.0002487571, -9.818299, 0, 0, 43.1034, 1, 1, 760, 800
 708481494, 0, 0.001605081, 0.001532648, 0.001590588, -0.001998885, -0.002054287, -9.818179, 0, 0, 43.10365, 1, 1, 999, 999
 708481494, 1, 0.00170028, 0.001400803, 0.001333703, -0.00137018, 0.0006556892, -9.815951, 0, 0, 43.10365, 1, 1, 760, 800
 708521478, 0, 0.001634376, 0.00154442, 0.001527681, -0.00209808, -0.001265184, -9.817434, 0, 0, 43.10391, 1, 1, 999, 999
 708521478, 1, 0.001314602, 0.001606827, 0.001438848, -0.001915704, -0.001585123, -9.817291, 0, 0, 43.10391, 1, 1, 760, 800
 708561462, 0, 0.001487592, 0.001569163, 0.001515828, -0.0007463399, -0.001938756, -9.818441, 0, 0, 43.10416, 1, 1, 999, 999
 708561462, 1, 0.001578311, 0.001664183, 0.001500076, -0.002631389, -0.001476392, -9.817865, 0, 0, 43.10416, 1, 1, 760, 800
 708601446, 0, 0.001549556, 0.001532172, 0.001560842, -0.001117412, -0.001933846, -9.818229, 0, 0, 43.10441, 1, 1, 999, 999
 708601446, 1, 0.001291397, 0.001598055, 0.001475709, 0.002106857, 0.0001879656, -9.817053, 0, 0, 43.10441, 1, 1, 760, 800
 708641430, 0, 0.001514781, 0.001593138, 0.001557433, -0.0005969323, -0.0006845604, -9.818221, 0, 0, 43.10466, 1, 1, 999, 999
 708641430, 1, 0.001713447, 0.001795378, 0.001620969, -0.002578827, -0.0002941488, -9.817036, 0, 0, 43.10466, 1, 1, 760, 800
 708681414, 0, 0.001541695, 0.001551105, 0.001555984, -0.001172206, -0.000713267, -9.817115, 0, 0, 43.10492, 1, 1, 999, 999
 708681414, 1, 0.001437129, 0.001435953, 0.001283573, -0.000748383, -0.001684662, -9.81756, 0, 0, 43.10492, 1, 1, 760, 800
 708721398, 0, 0.001513875, 0.001484095, 0.001522533, -0.001081098, -0.001067915, -9.817317, 0, 0, 43.10517, 1, 1, 999, 999
 708721398, 1, 0.001491341, 0.001460459, 0.001415117, -0.0006369441, 0.0008900221, -9.817, 0, 0, 43.10517, 1, 1, 760, 800
 708761382, 0, 0.00156168, 0.001554079, 0.001589389, -0.0006190166, -0.0005834365, -9.817556, 0, 0, 43.10542, 1, 1, 999, 999
 708761382, 1, 0.001714837, 0.001526897, 0.001545533, -0.001042491, 0.001220737, -9.81694, 0, 0, 43.10542, 1, 1, 760, 800
 708801366, 0, 0.001550526, 0.001538819, 0.001598013, -0.0009151776, -0.0007190579, -9.817953, 0, 0, 43.10567, 1, 1, 999, 999
 708801366, 1, 0.001515279, 0.001671385, 0.001469559, -0.0007706003, -0.002716156, -9.819534, 0, 0, 43.10567, 1, 1, 760, 800
 708841350, 0, 0.001600824, 0.001558711, 0.001570977, -0.0008742756, -0.0008292513, -9.817451, 0, 0, 43.10593, 1, 1, 999, 999
 708841350, 1, 0.001606129, 0.001573537, 0.001825997, -0.00139537, -0.0004024807, -9.818777, 0, 0, 43.10592, 1, 1, 760, 800
 708881334, 0, 0.001544955, 0.001560809, 0.001586391, -0.001129412, -0.0004040195, -9.816532, 0, 0, 43.10618, 1, 1, 999, 999
 708881334, 1, 0.001675848, 0.001663235, 0.001795906, -0.001439724, 0.0001067218, -9.815345, 0, 0, 43.10617, 1, 1, 760, 800
 708921318, 0, 0.001598167, 0.001560727, 0.001647514, -0.0008667904, -0.001064679, -9.81729, 0, 0, 43.10643, 1, 1, 999, 999
 708921318, 1, 0.001569709, 0.001671886, 0.001468109, -0.002090006, -0.002091198, -9.817556, 0, 0, 43.10643, 1, 1, 760, 800
 708961302, 0, 0.001601039, 0.001524092, 0.001588944, -0.0003537831, -0.001426992, -9.817662, 0, 0, 43.10669, 1, 1, 999, 999
 708961302, 1, 0.001474456, 0.001761544, 0.001697924, -0.001654579, -0.001285223, -9.816504, 0, 0, 43.10668, 1, 1, 760, 800
 709001286, 0, 0.001567643, 0.00150206, 0.001550718, -0.001403891, 7.189736E-05, -9.817595, 0, 0, 43.10694, 1, 1, 999, 999
 709001286, 1, 0.001273765, 0.001573389, 0.001406281, -0.004452535, 0.003121838, -9.816291, 0, 0, 43.10693, 1, 1, 760, 800
 709041270, 0, 0.001563411, 0.001584197, 0.001566411, -0.0009392105, -0.001415052, -9.816236, 0, 0, 43.10719, 1, 1, 999, 999
 709041270, 1, 0.001420996, 0.00138424, 0.001420782, 0.0002975541, -0.002966334, -9.818192, 0, 0, 43.10719, 1, 1, 760, 800
 709081254, 0, 0.001572116, 0.001534964, 0.001528553, -3.896513E-05, -0.001345861, -9.817446, 0, 0, 43.10744, 1, 1, 999, 999
 709081254, 1, 0.001723614, 0.001447743, 0.001501056, -0.001156563, -0.002309449, -9.817344, 0, 0, 43.10744, 1, 1, 760, 800
 709121238, 0, 0.001621808, 0.001572202, 0.001478477, -0.0009078783, -0.0005953553, -9.818183, 0, 0, 43.1077, 1, 1, 999, 999
 709121238, 1, 0.001591127, 0.001504698, 0.001406073, -0.002606987, -0.004179988, -9.81756, 0, 0, 43.10769, 1, 1, 760, 800
 709161222, 0, 0.001572755, 0.001649061, 0.00152679, -0.001447667, 0.0002685259, -9.817251, 0, 0, 43.10795, 1, 1, 999, 999
 709161222, 1, 0.001422348, 0.001677118, 0.001370776, -0.002536376, -0.0008631907, -9.818993, 0, 0, 43.10794, 1, 1, 760, 800
 709201206, 0, 0.001549909, 0.00149294, 0.001566032, -0.001229741, -0.001155657, -9.818304, 0, 0, 43.1082, 1, 1, 1000, 1000
 709201206, 1, 0.001407547, 0.001835751, 0.001424064, -0.00185317, -0.00140767, -9.817389, 0, 0, 43.10819, 1, 1, 760, 800
 709241190, 0, 0.00152157, 0.001528329, 0.00161291, -4.12815E-05, -0.001840182, -9.817341, 0, 0, 43.10845, 1, 1, 1000, 1000
 709241190, 1, 0.001450238, 0.001541283, 0.001649743, 0.000726223, -0.001852029, -9.818925, 0, 0, 43.10844, 1, 1, 760, 800
 709281174, 0, 0.00152056, 0.001594575, 0.001569632, -0.001684707, -0.000352307, -9.81825, 0, 0, 43.1087, 1, 1, 1000, 1000
 709281174, 1, 0.001542808, 0.001498618, 0.001470255, -0.0009912826, -0.000104782, -9.81795, 0, 0, 43.1087, 1, 1, 760, 800
 709321158, 0, 0.001627665, 0.001579256, 0.001576873, -0.0002057394, -0.0007163316, -9.817754, 0, 0, 43.10896, 1, 1, 1000, 1000
 709321158, 1, 0.001415011, 0.001531624, 0.001434144, -0.002327253, -0.002636816, -9.817541, 0, 0, 43.10895, 1, 1, 760, 800
 709361142, 0, 0.001559101, 0.001561719, 0.001543618, -8.797494E-05, -0.001644664, -9.816184, 0, 0, 43.10921, 1, 1, 1000, 1000
 709361142, 1, 0.001475436, 0.001740899, 0.001479068, 0.002015584, 0.0005203448, -9.818573, 0, 0, 43.1092, 1, 1, 760, 800
 709401126, 0, 0.001621525, 0.001537224, 0.001588386, -0.0004825254, -0.0008614199, -9.817486, 0, 0, 43.10946, 1, 1, 1000, 1000
 709401126, 1, 0.001625147, 0.001554956, 0.001696103, -0.000833167, -0.002821265, -9.817089, 0, 0, 43.10946, 1, 1, 760, 800
 709441110, 0, 0.001588223, 0.001609251, 0.001555825, -0.00185138, 8.574726E-05, -9.817443, 0, 0, 43.10971, 1, 1, 1000, 1000
 709441110, 1, 0.001433791, 0.00146371, 0.001414672, -0.002263253, -0.002986916, -9.814747, 0, 0, 43.10971, 1, 1, 760, 800
 709481094, 0, 0.001559345, 0.001540013, 0.001568132, 0.0001229843, -0.002261171, -9.817602, 0, 0, 43.10996, 1, 1, 1000, 1000
 709481094, 1, 0.001574432, 0.001635181, 0.00164796, -0.003341792, -0.000394975, -9.818414, 0, 0, 43.10996, 1, 1, 760, 800
 709521078, 0, 0.001579891, 0.001552421, 0.001577868, -0.002226511, -0.0006554615, -9.816929, 0, 0, 43.11021, 1, 1, 1000, 1000
 709521078, 1, 0.001645949, 0.001485194, 0.001632009, 0.003072881, 0.0001559528, -9.818278, 0, 0, 43.11021, 1, 1, 760, 800
 709561062, 0, 0.001596942, 0.001638013, 0.00148926, -0.001478186, -0.001527184, -9.818148, 0, 0, 43.11046, 1, 1, 1000, 1000
 709561062, 1, 0.001532197, 0.001576021, 0.001395386, -0.001095067, -8.80922E-05, -9.817293, 0, 0, 43.11046, 1, 1, 760, 800
 709601046, 0, 0.001596918, 0.001588128, 0.001599459, -0.001684144, -0.001967108, -9.817524, 0, 0, 43.11071, 1, 1, 1000, 1000
 709601046, 1, 0.001437278, 0.001541171, 0.00165051, -0.001677153, -0.001865833, -9.81843, 0, 0, 43.11071, 1, 1, 760, 800
 709641030, 0, 0.001595064, 0.001564915, 0.001516177, -0.001076871, -0.0006082925, -9.817526, 0, 0, 43.11097, 1, 1, 1000, 1000
 709641030, 1, 0.001380723, 0.001688346, 0.001444847, -0.001459088, -0.0001408597, -9.817796, 0, 0, 43.11097, 1, 1, 760, 800
 709681014, 0, 0.001548489, 0.001508161, 0.00156587, -0.0006260122, -0.0008148644, -9.817068, 0, 0, 43.11122, 1, 1, 1000, 1000
 709681014, 1, 0.001528413, 0.001637622, 0.001613325, -0.005089631, -0.0005041912, -9.816272, 0, 0, 43.11122, 1, 1, 760, 800
 709720998, 0, 0.001581752, 0.001568615, 0.001602029, -0.001135679, -0.001388672, -9.817953, 0, 0, 43.11147, 1, 1, 1000, 1000
 709720998, 1, 0.001412616, 0.001545137, 0.001490942, -0.002802652, -0.002937291, -9.815728, 0, 0, 43.11147, 1, 1, 760, 800
 709760982, 0, 0.001556154, 0.001540061, 0.001578148, -0.0006645698, -0.0007355857, -9.818111, 0, 0, 43.11172, 1, 1, 1000, 1000
 709760982, 1, 0.001674723, 0.001601217, 0.001817586, -0.0009894706, -0.0006341554, -9.81819, 0, 0, 43.11172, 1, 1, 760, 800
 709800966, 0, 0.001615804, 0.001574035, 0.00162948, -0.001439741, -0.0001159296, -9.817713, 0, 0, 43.11197, 1, 1, 1000, 1000
 709800966, 1, 0.001552499, 0.001596937, 0.001619777, 6.23603E-05, 0.0003174976, -9.817798, 0, 0, 43.11197, 1, 1, 760, 800
 709840950, 0, 0.001546278, 0.001568334, 0.00160969, -0.001165741, -0.0008269389, -9.816978, 0, 0, 43.11222, 1, 1, 1000, 1000
 709840950, 1, 0.001535021, 0.001688987, 0.001506516, 0.0004529219, -1.890379E-05, -9.817616, 0, 0, 43.11222, 1, 1, 760, 800
 709880934, 0, 0.001601833, 0.001567979, 0.001578253, -0.0006605739, -0.0002662487, -9.81731, 0, 0, 43.11248, 1, 1, 1000, 1000
 709880934, 1, 0.001529208, 0.001623949, 0.001376579, 0.0001374271, -9.051009E-05, -9.817817, 0, 0, 43.11248, 1, 1, 760, 800
 709920918, 0, 0.001583504, 0.001591302, 0.001520795, -0.000768306, -0.001263574, -9.816776, 0, 0, 43.11273, 1, 1, 1000, 1000
 709920918, 1, 0.001619665, 0.001710084, 0.001546045, -0.001219548, 0.0001234154, -9.819555, 0, 0, 43.11273, 1, 1, 760, 800
 709960902, 0, 0.001612239, 0.001535156, 0.001606731, -0.0009280583, -0.00181145, -9.817277, 0, 0, 43.11298, 1, 1, 1000, 1000
 709960902, 1, 0.001707482, 0.001555741, 0.001472857, -0.000687095, -0.0008755968, -9.81673, 0, 0, 43.11298, 1, 1, 760, 800
 710000886, 0, 0.001582864, 0.001562721, 0.001564207, -0.002012875, -0.0012143, -9.817484, 0, 0, 43.11323, 1, 1, 1000, 1000
 710000886, 1, 0.001421368, 0.001619849, 0.001598869, -0.001277773, -0.002490658, -9.817561, 0, 0, 43.11323, 1, 1, 760, 800
 710040870, 0, 0.001610064, 0.001590129, 0.001642026, -0.0006076265, -0.0003083718, -9.818374, 0, 0, 43.11348, 1, 1, 1000, 1000
 710040870, 1, 0.001674495, 0.00159765, 0.001627657, -0.0004351532, -0.00254594, -9.818299, 0, 0, 43.11348, 1, 1, 760, 800
 710080854, 0, 0.001535977, 0.001566904, 0.001575101, -0.0006956655, -0.00172112, -9.815732, 0, 0, 43.11374, 1, 1, 1000, 1000
 710080854, 1, 0.001410516, 0.001473549, 0.001710225, -0.0008296056, 8.278579E-05, -9.816401, 0, 0, 43.11374, 1, 1, 760, 800
 710120838, 0, 0.001633268, 0.001543395, 0.001562869, -0.001377183, -0.000134761, -9.817329, 0, 0, 43.11399, 1, 1, 1000, 1000
 710120838, 1, 0.001627162, 0.001424107, 0.001431073, 0.002038462, -4.184137E-05, -9.81731, 0, 0, 43.11399, 1, 1, 760, 800
 710160822, 0, 0.001588237, 0.001610189, 0.0016549, -0.0009612284, -0.001589628, -9.818069, 0, 0, 43.11424, 1, 1, 1000, 1000
 710160822, 1, 0.001311101, 0.00162789, 0.001466454, -0.002456266, -0.0007419492, -9.817874, 0, 0, 43.11424, 1, 1, 760, 800
 710200806, 0, 0.001546708, 0.0015833, 0.001607173, -0.001466755, -0.002187236, -9.818127, 0, 0, 43.11449, 1, 1, 999, 999
 710200806, 1, 0.001555052, 0.001677618, 0.00166224, -0.001119364, -0.002952722, -9.818785, 0, 0, 43.11449, 1, 1, 760, 800
 710240790, 0, 0.001589108, 0.00164462, 0.001535506, -0.001196812, 0.0002732709, -10.26836, 0, 0, 43.11474, 1, 1, 999, 999
 710240790, 1, 0.001600405, 0.00159232, 0.001625835, -0.002002968, -0.002959454, -10.2712, 0, 0, 43.11474, 1, 1, 760, 800
 710280774, 0, 0.001583745, 0.001575615, 0.001633096, -0.001079205, -0.001656776, -10.90368, 0, 0, 43.11499, 1, 1, 999, 999
 710280774, 1, 0.001680604, 0.001503461, 0.001538014, -7.153876E-05, -0.001996634, -10.90553, 0, 0, 43.11499, 1, 1, 760, 800
 710321591, 0, 0.001564529, 0.001567786, 0.001592241, -0.001173435, -0.0005659505, -11.11067, 0, 0, 43.11525, 1, 1, 999, 999
 710321591, 1, 0.001512795, 0.00174634, 0.001407137, -0.00037482, -0.001238635, -11.11244, 0, 0, 43.11525, 1, 1, 760, 800
 710361575, 0, 0.001592311, 0.001609733, 0.001549047, -0.001387174, -0.0008106609, -11.17269, 0, 0, 43.1155, 1, 1, 999, 999
 710361575, 1, 0.00150023, 0.001476685, 0.001539099, -0.002140389, -0.0006939912, -11.16477, 0, 0, 43.1155, 1, 1, 760, 800
 710401559, 0, 0.001582487, 0.001565489, 0.001577868, -0.001052242, -0.000576344, -11.19905, 0, 0, 43.11575, 1, 1, 999, 999
 710401559, 1, 0.001575364, 0.001751631, 0.001403233, -0.001604428, -0.00151396, -11.19107, 0, 0, 43.11575, 1, 1, 760, 800
 710441543, 0, 0.001590587, 0.001565129, 0.001580795, -0.001551306, -0.001385613, -11.19859, 0, 0, 43.116, 1, 1, 999, 999
 710441543, 1, 0.001665961, 0.001747262, 0.001634405, -0.002852313, 0.0003903876, -11.1946, 0, 0, 43.116, 1, 1, 760, 800
 710481527, 0, 0.001554706, 0.001579719, 0.001643353, -0.001153756, -0.001854267, -11.18884, 0, 0, 43.11625, 1, 1, 999, 999
 710481527, 1, 0.001594726, 0.001511815, 0.00156181, -0.002235936, -0.0005456756, -11.18078, 0, 0, 43.11625, 1, 1, 760, 800
 710521511, 0, 0.001594565, 0.001641872, 0.00159584, -0.0007825416, -0.0002121876, -11.17319, 0, 0, 43.1165, 1, 1, 999, 999
 710521511, 1, 0.001524968, 0.001783124, 0.001561091, -0.00275362, -0.002022556, -11.16457, 0, 0, 43.1165, 1, 1, 760, 800
 710561495, 0, 0.001609715, 0.001548735, 0.001588592, -0.0006574555, -0.0001797973, -11.15296, 0, 0, 43.11676, 1, 1, 999, 999
 710561495, 1, 0.001548472, 0.001578868, 0.001568454, -0.001628833, -0.001898541, -11.14484, 0, 0, 43.11676, 1, 1, 760, 800
 710601479, 0, 0.001603346, 0.001561557, 0.001611262, -0.001253782, -0.0003281737, -11.13133, 0, 0, 43.11701, 1, 1, 999, 999
 710601479, 1, 0.001638719, 0.001630744, 0.001643317, -0.002549586, -0.0006868679, -11.12424, 0, 0, 43.11701, 1, 1, 760, 800
 710641463, 0, 0.001638627, 0.001579463, 0.001611843, -0.000669658, -0.000659002, -11.10613, 0, 0, 43.11726, 1, 1, 999, 999
 710641463, 1, 0.001430571, 0.001563219, 0.001595407, -0.0009801995, -0.0006952945, -11.09657, 0, 0, 43.11726, 1, 1, 760, 800
 710681447, 0, -0.02316179, -0.0252472, 0.0015398, 0.0005872691, -0.002007955, -13.61695, 0, 0, 43.11751, 1, 1, 999, 999
 710681447, 1, -0.02282947, -0.02494046, 0.001417802, -0.002130585, -0.003055516, -13.6178, 0, 0, 43.11751, 1, 1, 760, 800
 710721431, 0, -0.02695281, -0.02889659, 0.001479425, -0.002016809, -0.0003265904, -15.8831, 0, 0, 43.11776, 1, 1, 999, 999
 710721431, 1, -0.02699639, -0.02867341, 0.001584039, -0.0006142488, -0.000631182, -15.90252, 0, 0, 43.11776, 1, 1, 760, 800
 710761415, 0, -0.02262548, -0.02472482, 0.001376628, -0.009143667, 0.005539926, -15.72667, 0, 0, 43.11801, 1, 1, 999, 999
 710761415, 1, -0.02244305, -0.02468747, 0.001367802, -0.009585982, 0.004773776, -15.74657, 0, 0, 43.11801, 1, 1, 760, 800
 710801399, 0, -0.01790936, -0.01930734, 0.001302816, -0.01636105, 0.01171833, -14.85603, 0, 0, 43.11826, 1, 1, 999, 999
 710801399, 1, -0.0178327, -0.01917593, 0.001389832, -0.0144107, 0.01257708, -14.87098, 0, 0, 43.11826, 1, 1, 760, 800
 710841383, 0, -0.01252862, -0.0137301, 0.001230648, -0.01924629, 0.0142842, -13.77323, 0, 0, 43.11852, 1, 1, 999, 999
 710841383, 1, -0.0126278, -0.01394421, 0.001257205, -0.01972914, 0.01491239, -13.80601, 0, 0, 43.11851, 1, 1, 760, 800
 710881367, 0, -0.003291558, -0.005558354, 0.001134061, -0.01767664, 0.01490576, -12.69263, 0, 0, 43.11876, 1, 1, 999, 999
 710881367, 1, -0.0033578, -0.005642133, 0.001398975, -0.01923998, 0.01426286, -12.71026, 0, 0, 43.11876, 1, 1, 760, 800
 710921351, 0, 0.003350838, 0.001196247, 0.001092462, -0.01593972, 0.01181374, -11.754, 0, 0, 43.11901, 1, 1, 999, 999
 710921351, 1, 0.003476188, 0.00115789, 0.0009515468, -0.015479, 0.01038083, -11.77081, 0, 0, 43.11901, 1, 1, 760, 800
 710961335, 0, 0.005675366, 0.005039451, 0.001094685, -0.01107121, 0.006313554, -11.031, 0, 0, 43.11927, 1, 1, 999, 999
 710961335, 1, 0.005815667, 0.004807904, 0.001180896, -0.009907232, 0.00718677, -11.04635, 0, 0, 43.11926, 1, 1, 760, 800
 711001319, 0, 0.005717222, 0.007165639, 0.001039422, -0.006819291, 0.005070096, -10.54027, 0, 0, 43.11952, 1, 1, 999, 999
 711001319, 1, 0.005770068, 0.00730831, 0.0009860771, -0.006811411, 0.004534003, -10.55527, 0, 0, 43.11951, 1, 1, 760, 800
 711041303, 0, 0.007286073, 0.008798692, 0.0009985837, -0.00417264, 0.002829885, -10.27202, 0, 0, 43.11977, 1, 1, 999, 999
 711041303, 1, 0.00725708, 0.008816655, 0.0009542886, -0.004148622, 0.001154811, -10.28005, 0, 0, 43.11976, 1, 1, 760, 800
 711081287, 0, 0.01147146, 0.01297075, 0.0008710486, -0.002443131, 0.0001825924, -10.18096, 0, 0, 43.12002, 1, 1, 999, 999
 711081287, 1, 0.011612, 0.01292712, 0.0008571753, -0.001517787, 0.00264171, -10.18837, 0, 0, 43.12001, 1, 1, 760, 800
 711121271, 0, 0.01306331, 0.01417914, 0.0008781936, -0.001020627, 0.0001503846, -10.22367, 0, 0, 43.12027, 1, 1, 999, 999
 711121271, 1, 0.01321829, 0.0142016, 0.001030516, -0.003526312, -0.002649076, -10.22546, 0, 0, 43.12026, 1, 1, 760, 800
 711161255, 0, 0.01260998, 0.01409659, 0.0008389556, -0.002418529, 0.000865594, -10.33726, 0, 0, 43.12052, 1, 1, 999, 999
 711161255, 1, 0.01247859, 0.01404675, 0.0009275097, -0.001282813, 0.001685641, -10.33897, 0, 0, 43.12051, 1, 1, 760, 800
 711201239, 0, 0.01072751, 0.01236578, 0.0007682454, -0.003513942, -0.0003544633, -10.48555, 0, 0, 43.12077, 1, 1, 1000, 1000
 711201239, 1, 0.01084349, 0.01245503, 0.0008180134, -0.00331287, 0.00066863, -10.48085, 0, 0, 43.12076, 1, 1, 760, 800
 711241223, 0, 0.009575022, 0.01065306, 0.0007410728, -0.00407687, 0.002476171, -10.62424, 0, 0, 43.12102, 1, 1, 1000, 1000
 711241223, 1, 0.009442257, 0.01063797, 0.0008082252, -0.005131786, 0.005381461, -10.62361, 0, 0, 43.12101, 1, 1, 760, 800
 711281207, 0, 0.01046564, 0.01131902, 0.0008344959, -0.004998819, 0.001183974, -10.75234, 0, 0, 43.12127, 1, 1, 1000, 1000
 711281207, 1, 0.01054972, 0.01141965, 0.0008999389, -0.004347237, 0.002686758, -10.75207, 0, 0, 43.12127, 1, 1, 760, 800
 711321191, 0, 0.01161155, 0.01260926, 0.0008467572, -0.006147344, 0.003211575, -10.82727, 0, 0, 43.12152, 1, 1, 1000, 1000
 711321191, 1, 0.0117278, 0.01301878, 0.0007210404, -0.006367149, 0.001646493, -10.82646, 0, 0, 43.12151, 1, 1, 760, 800
 711361175, 0, 0.01013371, 0.011944, 0.0008372003, -0.005787751, 0.004423233, -10.87943, 0, 0, 43.12177, 1, 1, 1000, 1000
 711361175, 1, 0.01011172, 0.01198293, 0.000704392, -0.005367298, 0.004436802, -10.87913, 0, 0, 43.12177, 1, 1, 760, 800
 711401159, 0, 0.007764679, 0.007994111, 0.0007852667, -0.008070396, 0.003925534, -10.89224, 0, 0, 43.12202, 1, 1, 1000, 1000
 711401159, 1, 0.007819915, 0.007991037, 0.00091157, -0.007763308, 0.004983998, -10.89031, 0, 0, 43.12202, 1, 1, 760, 800
 711441143, 0, 0.00650726, 0.005832138, 0.0007270554, -0.006378998, 0.004429021, -10.87525, 0, 0, 43.12227, 1, 1, 1000, 1000
 711441143, 1, 0.006484502, 0.005834739, 0.0007207803, -0.003689031, 0.002875119, -10.87493, 0, 0, 43.12226, 1, 1, 760, 800
 711481127, 0, 0.008133709, 0.007581864, 0.0006925025, -0.0071827, 0.00446368, -10.83971, 0, 0, 43.12252, 1, 1, 1000, 1000
 711481127, 1, 0.00809719, 0.007654073, 0.0006586481, -0.006947622, 0.004687691, -10.83713, 0, 0, 43.12252, 1, 1, 760, 800
 711521111, 0, 0.007247332, 0.005978514, 0.0007661434, -0.006535843, 0.00480701, -10.80035, 0, 0, 43.12277, 1, 1, 1000, 1000
 711521111, 1, 0.007389725, 0.006069447, 0.0007063105, -0.005501281, 0.004792107, -10.80287, 0, 0, 43.12277, 1, 1, 760, 800
 711561095, 0, 0.009281906, 0.008955842, 0.0007871907, -0.006520243, 0.002930006, -10.74997, 0, 0, 43.12302, 1, 1, 1000, 1000
 711561095, 1, 0.009076971, 0.009175205, 0.0007307849, -0.005216957, 0.006563251, -10.7516, 0, 0, 43.12302, 1, 1, 760, 800
 711601079, 0, 0.008173869, 0.007323195, 0.0008218744, -0.007523376, 0.00413772, -10.70572, 0, 0, 43.12327, 1, 1, 1000, 1000
 711601079, 1, 0.008123783, 0.007348198, 0.0008361816, -0.008094448, 0.003962619, -10.70564, 0, 0, 43.12327, 1, 1, 760, 800
 711641063, 0, 0.002515363, 0.002417016, 0.0008021713, -0.006257358, 0.00411259, -10.65604, 0, 0, 43.12352, 1, 1, 1000, 1000
 711641063, 1, 0.002588485, 0.00240715, 0.0006230769, -0.007222707, 0.003940026, -10.65705, 0, 0, 43.12352, 1, 1, 760, 800
 711681047, 0, 0.003796102, 0.002659501, 0.0008291001, -0.008038864, 0.003935025, -10.62383, 0, 0, 43.12377, 1, 1, 1000, 1000
 711681047, 1, 0.003929916, 0.002752643, 0.0007459371, -0.007026647, 0.004408512, -10.62321, 0, 0, 43.12377, 1, 1, 760, 800
 711721031, 0, 0.00511514, 0.004277717, 0.0009603709, -0.007630984, 0.003234423, -10.60048, 0, 0, 43.12402, 1, 1, 1000, 1000
 711721031, 1, 0.005279422, 0.004365484, 0.0008232575, -0.005957437, 0.004728582, -10.5977, 0, 0, 43.12402, 1, 1, 760, 800
 711761015, 0, 0.006827616, 0.006245934, 0.000939332, -0.005867959, 0.004435676, -10.58151, 0, 0, 43.12427, 1, 1, 1000, 1000
 711761015, 1, 0.006772953, 0.006287525, 0.0008739932, -0.005438443, 0.005689037, -10.5828, 0, 0, 43.12427, 1, 1, 760, 800
 711800999, 0, 0.003141114, 0.005020745, 0.001095002, -0.007166896, 0.004585739, -10.56287, 0, 0, 43.12452, 1, 1, 1000, 1000
 711800999, 1, 0.003051965, 0.00490324, 0.001223698, -0.005578317, 0.003316324, -10.56541, 0, 0, 43.12452, 1, 1, 760, 800
 711840983, 0, 0.006493887, 0.005142195, 0.001203552, -0.007187519, 0.004311998, -10.56513, 0, 0, 43.12477, 1, 1, 1000, 1000
 711840983, 1, 0.006404754, 0.005178141, 0.001210755, -0.006238133, 0.003396454, -10.56494, 0, 0, 43.12477, 1, 1, 760, 800
 711880967, 0, 0.006208065, 0.005208786, 0.001252852, -0.005826509, 0.004195333, -10.54441, 0, 0, 43.12502, 1, 1, 1000, 1000
 711880967, 1, 0.00622607, 0.005059974, 0.001058838, -0.004044364, 0.007070526, -10.54395, 0, 0, 43.12502, 1, 1, 760, 800
 711920951, 0, 0.002560622, 0.005733312, 0.001347414, -0.00740603, 0.004978844, -10.53852, 0, 0, 43.12527, 1, 1, 1000, 1000
 711920951, 1, 0.002318717, 0.005804915, 0.001414617, -0.006780925, 0.004774896, -10.53853, 0, 0, 43.12527, 1, 1, 760, 800
 711960935, 0, 0.002464248, 0.003376726, 0.001420044, -0.006096634, 0.003810768, -10.45097, 0, 0, 43.12552, 1, 1, 1000, 1000
 711960935, 1, 0.002520506, 0.003245721, 0.001426646, -0.007301781, 0.004355858, -10.45146, 0, 0, 43.12552, 1, 1, 760, 800
 712000919, 0, 0.002292165, 0.002764215, 0.001486158, -0.004954051, 0.003087798, -10.34031, 0, 0, 43.12577, 1, 1, 1000, 1000
 712000919, 1, 0.002322983, 0.002756219, 0.001423213, -0.0054213, 0.003257336, -10.3408, 0, 0, 43.12577, 1, 1, 760, 800
 712040903, 0, 0.0008909783, 0.0007150255, 0.001560127, -0.005962619, 0.002577619, -10.23873, 0, 0, 43.12602, 1, 1, 1000, 1000
 712040903, 1, 0.0006538292, 0.0008043511, 0.001647354, -0.006661749, 0.003521198, -10.23873, 0, 0, 43.12602, 1, 1, 760, 800
 712080887, 0, 0.002009003, 0.00269593, 0.001533883, -0.005756784, 0.002945047, -10.1515, 0, 0, 43.12627, 1, 1, 1000, 1000
 712080887, 1, 0.002015013, 0.002716955, 0.001465572, -0.006412159, 0.002387104, -10.15247, 0, 0, 43.12627, 1, 1, 760, 800
 712120871, 0, 0.002736765, 0.002546659, 0.001562205, -0.004242646, 0.002129789, -10.06707, 0, 0, 43.12652, 1, 1, 1000, 1000
 712120871, 1, 0.002865661, 0.00263411, 0.001524727, -0.005893112, 0.003807331, -10.06995, 0, 0, 43.12652, 1, 1, 760, 800
 712160855, 0, 0.002729646, 0.003214121, 0.001609995, -0.005235665, 0.002103355, -9.995737, 0, 0, 43.12677, 1, 1, 1000, 1000
 712160855, 1, 0.002710416, 0.003509583, 0.00170848, -0.004145115, 0.0003765381, -9.995919, 0, 0, 43.12677, 1, 1, 760, 800
 712200839, 0, 0.002596771, 0.002612752, 0.001638391, -0.004403683, 0.002615532, -9.926058, 0, 0, 43.12702, 1, 1, 999, 999
 712200839, 1, 0.002546443, 0.002655996, 0.001871683, -0.007416155, 0.002975025, -9.927385, 0, 0, 43.12702, 1, 1, 760, 800
 712240823, 0, 0.001533669, 0.002126787, 0.001723837, -0.005161694, 0.003004225, -9.86918, 0, 0, 43.12727, 1, 1, 999, 999
 712240823, 1, 0.001573117, 0.001911615, 0.00154501, -0.004396261, 0.001100607, -9.869196, 0, 0, 43.12727, 1, 1, 760, 800
 712280807, 0, 0.002310454, 0.001841718, 0.001793058, -0.004398762, 0.001384643, -9.814006, 0, 0, 43.12752, 1, 1, 999, 999
 712280807, 1, 0.002290438, 0.002181266, 0.001907605, -0.005406247, 0.0005232373, -9.815838, 0, 0, 43.12752, 1, 1, 760, 800
 712320791, 0, 0.002027861, 0.0005098082, 0.001915909, -0.003407734, 0.001205811, -9.76798, 0, 0, 43.12777, 1, 1, 999, 999
 712320791, 1, 0.002145707, 0.0005750134, 0.001804019, -0.005334952, 0.00104589, -9.768642, 0, 0, 43.12777, 1, 1, 760, 800
 712360775, 0, 0.003296638, 0.004747353, 0.001894995, -0.004644761, 0.001257431, -9.721212, 0, 0, 43.12802, 1, 1, 999, 999
 712360775, 1, 0.00333912, 0.004862896, 0.001930853, -0.006091704, 0.00115881, -9.721209, 0, 0, 43.12802, 1, 1, 760, 800
 712401592, 0, 0.002191185, 0.002180434, 0.001897606, -0.003826082, 0.0006333808, -9.645449, 0, 0, 43.12827, 1, 1, 999, 999
 712401592, 1, 0.002413207, 0.002148189, 0.001737012, -0.005150548, 0.001271279, -9.644979, 0, 0, 43.12827, 1, 1, 760, 800
 712441576, 0, 0.0002759022, 0.0005753439, 0.001805077, -0.003921921, 0.001048684, -9.561554, 0, 0, 43.12852, 1, 1, 999, 999
 712441576, 1, 0.0002386524, 0.0006971653, 0.00184485, -0.00334526, 0.0007443585, -9.560768, 0, 0, 43.12852, 1, 1, 760, 800
 712481560, 0, 0.00190718, 0.001901663, 0.001640095, -0.002774028, 0.0006250807, -9.481888, 0, 0, 43.12877, 1, 1, 999, 999
 712481560, 1, 0.001851399, 0.001749315, 0.001538957, -0.002087822, -0.000945078, -9.480797, 0, 0, 43.12877, 1, 1, 760, 800
 712521544, 0, 0.001751883, 0.002521751, 0.001585843, -0.003442623, 0.002151165, -9.415928, 0, 0, 43.12902, 1, 1, 999, 999
 712521544, 1, 0.00171888, 0.00234392, 0.001362896, -0.003060168, 0.003549999, -9.41691, 0, 0, 43.12902, 1, 1, 760, 800
 712561528, 0, 0.001892258, 0.00276691, 0.001522239, -0.002582018, -0.0001100462, -9.356227, 0, 0, 43.12927, 1, 1, 999, 999
 712561528, 1, 0.001983322, 0.002863436, 0.001596897, -0.00218925, -3.607701E-05, -9.355145, 0, 0, 43.12927, 1, 1, 760, 800
 712601512, 0, -0.0002555391, 0.0002892211, 0.001389029, -0.003737393, 0.0007981365, -9.305075, 0, 0, 43.12952, 1, 1, 999, 999
 712601512, 1, 2.558965E-05, 0.0001869776, 0.001501062, -0.001462893, -6.084192E-05, -9.304638, 0, 0, 43.12952, 1, 1, 760, 800
 712641496, 0, -0.0008282504, -0.002521979, 0.001346502, -0.001698346, 1.403305E-05, -9.263319, 0, 0, 43.12977, 1, 1, 999, 999
 712641496, 1, -0.0008852286, -0.002674419, 0.001424267, -0.002934844, 0.001014459, -9.263588, 0, 0, 43.12977, 1, 1, 760, 800
 712681480, 0, -0.0001583713, -0.001401402, 0.001205347, -0.00307, 0.0006253342, -9.223088, 0, 0, 43.13002, 1, 1, 999, 999
 712681480, 1, -9.567697E-05, -0.001319967, 0.001299427, -0.004414874, -3.827571E-05, -9.221338, 0, 0, 43.13002, 1, 1, 760, 800
 712721464, 0, 0.0040586, 0.003307131, 0.001288553, -0.00212038, 3.594306E-05, -9.188971, 0, 0, 43.13027, 1, 1, 999, 999
 712721464, 1, 0.004084205, 0.003390585, 0.001276439, 0.0003360705, -0.002001977, -9.190741, 0, 0, 43.13027, 1, 1, 760, 800
 712761448, 0, 0.0002270585, -0.0003889817, 0.001217669, -0.002380575, -0.001332873, -9.16244, 0, 0, 43.13052, 1, 1, 999, 999
 712761448, 1, 9.358977E-05, -0.0003901245, 0.001371897, -0.000631976, -0.00240879, -9.162364, 0, 0, 43.13052, 1, 1, 760, 800
 712801432, 0, -0.002147562, -0.000273858, 0.001081422, -0.003057365, -0.0006983171, -9.141456, 0, 0, 43.13077, 1, 1, 999, 999
 712801432, 1, -0.002201909, -0.0003702109, 0.001083716, -0.003521654, 0.0008450046, -9.141171, 0, 0, 43.13077, 1, 1, 760, 800
 712841416, 0, -0.002001313, -0.0008227975, 0.001043217, -0.001989312, -0.000960729, -9.128822, 0, 0, 43.13102, 1, 1, 999, 999
 712841416, 1, -0.002017347, -0.0009574007, 0.000924601, -0.001945976, -0.002109261, -9.128181, 0, 0, 43.13102, 1, 1, 760, 800
 712881400, 0, 0.000128029, 0.0002406198, 0.000922189, -0.002507646, -0.002270225, -9.115255, 0, 0, 43.13126, 1, 1, 999, 999
 712881400, 1, -6.560338E-05, 0.0003790046, 0.0009742661, -0.003405548, 0.0001094964, -9.11558, 0, 0, 43.13126, 1, 1, 760, 800
 712921384, 0, 0.003625184, 0.004067129, 0.0009566371, -0.002486137, -0.001058789, -9.091608, 0, 0, 43.13151, 1, 1, 999, 999
 712921384, 1, 0.003686916, 0.004134526, 0.0009600239, -0.001797677, -0.00172107, -9.090605, 0, 0, 43.13151, 1, 1, 760, 800
 712961368, 0, 0.002228919, 0.002128435, 0.0008478264, -0.0005135798, -0.001631338, -9.092019, 0, 0, 43.13176, 1, 1, 999, 999
 712961368, 1, 0.002366873, 0.002096523, 0.0008476566, -0.001391159, -0.001768372, -9.091515, 0, 0, 43.13176, 1, 1, 760, 800
 713001352, 0, -0.001127788, -0.0009117185, 0.0008788357, -0.001149952, -0.001834928, -9.091772, 0, 0, 43.13201, 1, 1, 999, 999
 713001352, 1, -0.001122583, -0.0009432692, 0.0009239289, -0.002081566, -0.00380209, -9.091885, 0, 0, 43.132, 1, 1, 760, 800
 713041336, 0, -0.002501761, -0.002168009, 0.0007824787, -0.000639607, -0.001573858, -9.076807, 0, 0, 43.13226, 1, 1, 999, 999
 713041336, 1, -0.002651117, -0.002170044, 0.0008387862, -0.001847501, -0.001676269, -9.077188, 0, 0, 43.13226, 1, 1, 760, 800
 713081320, 0, -0.001761307, -0.0005725995, 0.0007306235, -0.002371736, -0.002389283, -9.086306, 0, 0, 43.13251, 1, 1, 999, 999
 713081320, 1, -0.001917942, -0.0005243506, 0.0007834873, -0.001479999, -0.002323744, -9.085424, 0, 0, 43.1325, 1, 1, 760, 800
 713121304, 0, 0.000638107, 0.001074882, 0.0006609604, -0.001435017, -0.002480994, -9.08497, 0, 0, 43.13276, 1, 1, 999, 999
 713121304, 1, 0.0007357691, 0.001098829, 0.0006065001, -0.003198917, -0.0005559937, -9.083387, 0, 0, 43.13275, 1, 1, 760, 800
 713161288, 0, 0.0003130643, -0.001589481, 0.0007092498, -0.001256647, -0.002772217, -9.079498, 0, 0, 43.13301, 1, 1, 999, 999
 713161288, 1, 0.0003508899, -0.00141526, 0.000859475, -0.002256089, -0.0006841515, -9.082105, 0, 0, 43.133, 1, 1, 760, 800
 713201272, 0, 0.0003058092, -0.001424741, 0.0007244548, -0.001264195, -0.003071819, -9.094737, 0, 0, 43.13326, 1, 1, 999, 999
 713201272, 1, 0.0002166046, -0.001364083, 0.0007826558, 0.0002627947, -0.003425247, -9.092287, 0, 0, 43.13325, 1, 1, 760, 800
 713241256, 0, 0.0003178004, -0.001277411, 0.0007114427, -0.0007925348, -0.002339537, -9.106543, 0, 0, 43.13351, 1, 1, 999, 999
 713241256, 1, 0.0003031411, -0.001315792, 0.0008457504, -0.0007046825, -0.001258338, -9.103722, 0, 0, 43.1335, 1, 1, 760, 800
 713281240, 0, 0.001571542, 0.001914327, 0.0007655134, -0.0008749402, -0.002131262, -9.10837, 0, 0, 43.13375, 1, 1, 999, 999
 713281240, 1, 0.001501987, 0.001748174, 0.000694086, -0.002885526, -0.002328116, -9.108837, 0, 0, 43.13375, 1, 1, 760, 800
 713321224, 0, 0.001728755, 0.002627774, 0.0007122647, -0.001254657, -0.002624548, -9.113363, 0, 0, 43.134, 1, 1, 999, 999
 713321224, 1, 0.00165646, 0.00264793, 0.0007482955, -0.0003301323, -0.00367137, -9.111316, 0, 0, 43.134, 1, 1, 760, 800
 713361208, 0, -0.001704605, 0.0008126814, 0.0007451599, -0.000611569, -0.002854556, -9.11917, 0, 0, 43.13425, 1, 1, 999, 999
 713361208, 1, -0.001950846, 0.0006989599, 0.0007631022, -0.002128576, -0.001558546, -9.121267, 0, 0, 43.13425, 1, 1, 760, 800
 713401192, 0, -0.003074855, -0.001544564, 0.0007537171, -0.001216867, -0.002093037, -9.128356, 0, 0, 43.1345, 1, 1, 999, 999
 713401192, 1, -0.003141321, -0.00145168, 0.0006448885, -0.001266413, -0.000837901, -9.129138, 0, 0, 43.13449, 1, 1, 760, 800
 713441176, 0, -0.00329103, -0.001825459, 0.0006487612, 0.0003288942, -0.002720219, -9.137379, 0, 0, 43.13475, 1, 1, 999, 999
 713441176, 1, -0.003473397, -0.001766303, 0.0006434305, -0.001441241, -0.00234878, -9.13543, 0, 0, 43.13474, 1, 1, 760, 800
 713481160, 0, 0.000828145, 0.0008987482, 0.0006654266, -0.0001892283, -0.001799319, -9.149355, 0, 0, 43.135, 1, 1, 999, 999
 713481160, 1, 0.0007599705, 0.0009564383, 0.0005712184, 0.0004701887, -0.004568601, -9.149962, 0, 0, 43.13499, 1, 1, 760, 800
 713521144, 0, 0.001628456, 0.0008300157, 0.0006937163, -7.653114E-05, -0.003368983, -9.156996, 0, 0, 43.13525, 1, 1, 999, 999
 713521144, 1, 0.001604761, 0.0008102743, 0.000787797, -0.001840428, -0.003229773, -9.15801, 0, 0, 43.13524, 1, 1, 760, 800
 713561128, 0, 0.001613556, 0.0008663607, 0.0007028386, -0.0004791048, -0.00291771, -9.167221, 0, 0, 43.13549, 1, 1, 999, 999
 713561128, 1, 0.001603964, 0.0008981139, 0.0005941739, 0.001400053, -0.002588958, -9.166636, 0, 0, 43.13549, 1, 1, 760, 800
 713601112, 0, 0.00166486, 0.0008645487, 0.0007038628, 0.0005586356, -0.002106236, -9.179249, 0, 0, 43.13574, 1, 1, 999, 999
 713601112, 1, 0.001555109, 0.001020637, 0.0006062628, 0.001259343, -0.002704111, -9.178289, 0, 0, 43.13574, 1, 1, 760, 800
 713641096, 0, 0.001583388, 0.0008810778, 0.0007507192, -0.0008823663, -0.002638134, -9.189272, 0, 0, 43.13599, 1, 1, 999, 999
 713641096, 1, 0.001531376, 0.00101886, 0.0005765879, -0.0002288929, -0.002764378, -9.189795, 0, 0, 43.13599, 1, 1, 760, 800
 713681080, 0, 0.001628302, 0.0008693361, 0.0006804034, -0.0001428884, -0.003160192, -9.200153, 0, 0, 43.13623, 1, 1, 999, 999
 713681080, 1, 0.001701946, 0.001049676, 0.0006682754, -0.001851657, -0.002966995, -9.197618, 0, 0, 43.13623, 1, 1, 760, 800
 713721064, 0, 0.001604107, 0.0009142748, 0.0007029901, -0.0002342501, -0.003415808, -9.210773, 0, 0, 43.13648, 1, 1, 999, 999
 713721064, 1, 0.001488909, 0.0007741816, 0.0007010003, 0.001471357, -0.001391302, -9.21199, 0, 0, 43.13648, 1, 1, 760, 800
 713761048, 0, 0.001659646, 0.0009208577, 0.0007707714, -0.0002637685, -0.002550171, -9.221128, 0, 0, 43.13673, 1, 1, 999, 999
 713761048, 1, 0.001429668, 0.0009457313, 0.0007559846, -0.002491849, -0.001820123, -9.219117, 0, 0, 43.13673, 1, 1, 760, 800
 713801032, 0, 0.0006723049, 0.0009360065, 0.0007137958, -0.0003901807, -0.002389489, -9.224918, 0, 0, 43.13698, 1, 1, 999, 999
 713801032, 1, 0.0003265854, 0.001058372, 0.0008619269, 0.000141208, -0.0066911, -9.228073, 0, 0, 43.13698, 1, 1, 760, 800
 713841016, 0, -0.002280981, 0.0009164316, 0.000614944, -0.0005145739, -0.003279888, -9.239691, 0, 0, 43.13723, 1, 1, 999, 999
 713841016, 1, -0.00227171, 0.000980816, 0.0005344981, -0.0006789891, -0.00100175, -9.241035, 0, 0, 43.13723, 1, 1, 760, 800
 713881000, 0, 0.002112038, 0.001312197, 0.0007577352, -0.0007065542, -0.002858492, -9.230968, 0, 0, 43.13748, 1, 1, 999, 999
 713881000, 1, 0.00191771, 0.001391076, 0.0007599207, 0.001554299, -0.004119822, -9.228612, 0, 0, 43.13748, 1, 1, 760, 800
 713920984, 0, 0.002005602, 0.002005866, 0.000874557, -0.001139141, -0.002742418, -9.242177, 0, 0, 43.13773, 1, 1, 999, 999
 713920984, 1, 0.002253513, 0.001896213, 0.0008110733, -0.0001457509, 0.0006403085, -9.241579, 0, 0, 43.13773, 1, 1, 760, 800
 713960968, 0, 0.002747233, 0.00250121, 0.0009675922, -0.001130344, -0.003106745, -9.248866, 0, 0, 43.13797, 1, 1, 999, 999
 713960968, 1, 0.002836046, 0.002388754, 0.0009980761, -0.002397155, -0.001772059, -9.250402, 0, 0, 43.13797, 1, 1, 760, 800
 714000952, 0, 0.0006151071, 0.001839835, 0.0009990822, -0.001342528, -0.002868993, -9.252275, 0, 0, 43.13822, 1, 1, 999, 999
 714000952, 1, 0.0007201686, 0.0019049, 0.001083293, -0.0004201867, -0.004331715, -9.251849, 0, 0, 43.13822, 1, 1, 760, 800
 714040936, 0, -0.000717258, -0.0009931967, 0.001200191, 0.0002900807, -0.002295529, -9.256873, 0, 0, 43.13847, 1, 1, 999, 999
 714040936, 1, -0.0006770592, -0.0009327439, 0.001071607, -0.002359722, -0.00355226, -9.25737, 0, 0, 43.13847, 1, 1, 760, 800
 714080920, 0, 0.001003315, -0.0008712962, 0.001211809, -0.0008400992, -0.003262805, -9.260744, 0, 0, 43.13872, 1, 1, 999, 999
 714080920, 1, 0.0009159294, -0.0007271633, 0.001311192, 0.0005603966, -0.002727081, -9.260365, 0, 0, 43.13872, 1, 1, 760, 800
 714120904, 0, 0.0009217846, -0.000854389, 0.001208201, -0.0004145413, -0.003394363, -9.269547, 0, 0, 43.13897, 1, 1, 999, 999
 714120904, 1, 0.0008184947, -0.0008573527, 0.001111238, -9.869516E-05, -0.002787127, -9.271492, 0, 0, 43.13897, 1, 1, 760, 800
 714160888, 0, 0.0009689345, 0.001229973, 0.001313926, -0.00120732, -0.003529599, -9.273948, 0, 0, 43.13921, 1, 1, 999, 999
 714160888, 1, 0.00118437, 0.001278612, 0.001167272, 0.001804306, -0.003914251, -9.271806, 0, 0, 43.13921, 1, 1, 760, 800
 714200872, 0, 0.001012955, 0.00395878, 0.001433791, -0.001466909, -0.003247924, -9.278342, 0, 0, 43.13946, 1, 1, 1000, 1000
 714200872, 1, 0.001233129, 0.004138502, 0.001613089, -0.0005806083, -0.004938449, -9.278792, 0, 0, 43.13946, 1, 1, 760, 800
 714240856, 0, -0.0005482976, 0.002061857, 0.001536221, -0.0008629649, -0.001721367, -9.277262, 0, 0, 43.13971, 1, 1, 1000, 1000
 714240856, 1, -0.0007031455, 0.002240436, 0.001637245, 0.0003657372, -0.0004901938, -9.278584, 0, 0, 43.13971, 1, 1, 760, 800
 714280840, 0, 0.000434116, 0.002109823, 0.001629773, -0.0008823677, -0.003618344, -9.280663, 0, 0, 43.13996, 1, 1, 1000, 1000
 714280840, 1, 0.0006164212, 0.002339911, 0.001697604, -0.001984466, -0.0009172834, -9.280421, 0, 0, 43.13996, 1, 1, 760, 800
 714320824, 0, 0.003576365, 0.006910364, 0.001704058, -0.0005149965, -0.004035918, -9.281281, 0, 0, 43.14021, 1, 1, 1000, 1000
 714320824, 1, 0.003524754, 0.007012517, 0.001693332, -0.002955131, -0.003971365, -9.28028, 0, 0, 43.14021, 1, 1, 760, 800
 714360808, 0, 0.002852474, 0.006636201, 0.001733251, -0.0003792492, -0.001815125, -9.286776, 0, 0, 43.14045, 1, 1, 1000, 1000
 714360808, 1, 0.002823258, 0.006568357, 0.001726572, -0.0001696877, -0.001088378, -9.285711, 0, 0, 43.14045, 1, 1, 760, 800
 714400792, 0, 0.002758111, 0.004869981, 0.001745396, 1.406428E-05, -0.003780241, -9.289115, 0, 0, 43.1407, 1, 1, 1000, 1000
 714400792, 1, 0.002647826, 0.00489354, 0.001765896, -0.001672138, -0.003588255, -9.288821, 0, 0, 43.1407, 1, 1, 760, 800
 714440776, 0, 0.0007134961, 0.002611005, 0.001889863, -0.0023715, -0.002439521, -9.290424, 0, 0, 43.14095, 1, 1, 1000, 1000
 714440776, 1, 0.0004725753, 0.002678431, 0.001875579, -0.0002457518, -0.003740335, -9.29192, 0, 0, 43.14095, 1, 1, 760, 800
 714480760, 0, 0.0005337974, 0.003139067, 0.001862578, -0.001178005, -0.002067117, -9.290283, 0, 0, 43.1412, 1, 1, 1000, 1000
 714480760, 1, 0.0005199283, 0.003041405, 0.002031447, 0.0004260162, -0.003501525, -9.290698, 0, 0, 43.1412, 1, 1, 760, 800
 714521577, 0, -0.0009190586, 0.002196957, 0.001930167, 5.386228E-05, -0.00324877, -9.287454, 0, 0, 43.14145, 1, 1, 1000, 1000
 714521577, 1, -0.001231473, 0.002308466, 0.001805402, 1.996488E-05, -8.659252E-05, -9.286632, 0, 0, 43.14145, 1, 1, 760, 800
 714561561, 0, -0.000932625, 0.002430925, 0.001834469, -0.001447227, -0.002632023, -9.293478, 0, 0, 43.1417, 1, 1, 1000, 1000
 714561561, 1, -0.001055278, 0.002418439, 0.001889711, -0.0005723061, -0.002781319, -9.290356, 0, 0, 43.1417, 1, 1, 760, 800
 714601545, 0, -0.0008628639, 0.0007850475, 0.001945324, -0.001263561, -0.002392077, -9.296322, 0, 0, 43.14195, 1, 1, 1000, 1000
 714601545, 1, -0.0008781073, 0.0009032551, 0.001958718, -0.003006142, -0.002825424, -9.298163, 0, 0, 43.14195, 1, 1, 760, 800
 714641529, 0, 0.002136788, 0.0009641628, 0.001826487, -0.0004564633, -0.001623359, -9.293573, 0, 0, 43.1422, 1, 1, 1000, 1000
 714641529, 1, 0.002247128, 0.001032573, 0.001851238, 0.002739354, -0.0029848, -9.292221, 0, 0, 43.1422, 1, 1, 760, 800
 714681513, 0, 0.006243418, -0.0001384835, 0.001907206, -0.0008367414, -0.002456105, -9.292084, 0, 0, 43.14244, 1, 1, 1000, 1000
 714681513, 1, 0.006172873, -0.0002353538, 0.00193118, -0.003118919, -0.006117145, -9.292792, 0, 0, 43.14244, 1, 1, 760, 800
 714721497, 0, 0.006698504, 0.002558324, 0.001836075, -0.0006764812, -0.003194854, -9.290793, 0, 0, 43.14269, 1, 1, 1000, 1000
 714721497, 1, 0.006812512, 0.002466972, 0.001727717, -0.0006667505, -0.002423474, -9.290458, 0, 0, 43.14269, 1, 1, 760, 800
 714761481, 0, 0.006330958, 0.002386205, 0.001789638, -0.0005571072, -0.001809116, -9.29483, 0, 0, 43.14294, 1, 1, 1000, 1000
 714761481, 1, 0.006334796, 0.002421941, 0.00200369, 0.0001941916, -0.001353241, -9.294331, 0, 0, 43.14294, 1, 1, 760, 800
 714801465, 0, 0.003933095, 0.001774103, 0.001816672, -0.0002721786, -0.002181874, -9.298211, 0, 0, 43.14318, 1, 1, 1000, 1000
 714801465, 1, 0.004268739, 0.002014052, 0.001779378, -0.0003202368, -0.001949492, -9.297473, 0, 0, 43.14318, 1, 1, 760, 800
 714841449, 0, 0.00295191, 0.001214962, 0.001787374, -0.002318153, -0.002530677, -9.28948, 0, 0, 43.14343, 1, 1, 1000, 1000
 714841449, 1, 0.002844484, 0.001087585, 0.001675926, 0.0001857942, -0.003849119, -9.29016, 0, 0, 43.14343, 1, 1, 760, 800
 714881433, 0, -0.0001957909, -0.001124255, 0.001683037, -0.0003597118, -0.002053485, -9.287569, 0, 0, 43.14368, 1, 1, 1000, 1000
 714881433, 1, -0.0002557865, -0.001005186, 0.001812291, -0.001483744, -0.004033783, -9.288578, 0, 0, 43.14368, 1, 1, 760, 800
 714921417, 0, -7.252124E-05, -0.0002807725, 0.001624521, -0.001320581, -0.002804763, -9.293982, 0, 0, 43.14393, 1, 1, 1000, 1000
 714921417, 1, -0.0001983101, -0.0002932858, 0.001668179, 0.00107832, -0.001603633, -9.292367, 0, 0, 43.14393, 1, 1, 760, 800
 714961401, 0, 7.321156E-05, -0.0003209311, 0.00167501, -0.0006234944, -0.001759541, -9.300596, 0, 0, 43.14418, 1, 1, 1000, 1000
 714961401, 1, 2.59406E-05, -0.0003673348, 0.001595231, -0.003186198, -0.001944815, -9.300495, 0, 0, 43.14418, 1, 1, 760, 800
 715001385, 0, -0.0006793426, -8.963754E-05, 0.001574121, -0.0008038532, -0.001608228, -9.287298, 0, 0, 43.14442, 1, 1, 1000, 1000
 715001385, 1, -0.0005418634, 9.726334E-05, 0.001660538, -0.001501009, -0.002323713, -9.286325, 0, 0, 43.14442, 1, 1, 760, 800
 715041369, 0, 0.0002325765, 0.001758229, 0.001638234, -0.001041245, -0.002177809, -9.284149, 0, 0, 43.14467, 1, 1, 1000, 1000
 715041369, 1, 0.0002336587, 0.001782458, 0.001779116, -0.001140703, -0.001567487, -9.284226, 0, 0, 43.14466, 1, 1, 760, 800
 715081353, 0, -2.864931E-05, 0.00157973, 0.001634892, -0.001212237, -0.001354345, -9.290075, 0, 0, 43.14492, 1, 1, 1000, 1000
 715081353, 1, -0.0001467755, 0.001709049, 0.001582188, -0.00243399, -0.002482659, -9.289871, 0, 0, 43.14491, 1, 1, 760, 800
 715121337, 0, 0.002972803, 0.001636834, 0.001601237, -0.0004037017, -0.002183877, -9.294652, 0, 0, 43.14516, 1, 1, 1000, 1000
 715121337, 1, 0.002951005, 0.001617963, 0.001563468, -0.0004795218, -0.0006506859, -9.292853, 0, 0, 43.14516, 1, 1, 760, 800
 715161321, 0, 0.003594983, 0.0001526035, 0.001456989, 0.0004636903, -0.002331046, -9.285608, 0, 0, 43.14541, 1, 1, 1000, 1000
 715161321, 1, 0.003432401, -0.0001689025, 0.001350411, -1.181164E-05, -0.001913252, -9.284335, 0, 0, 43.1454, 1, 1, 760, 800
 715201305, 0, 0.0008153984, 0.000924502, 0.001375938, -5.100929E-05, -0.002112124, -9.279209, 0, 0, 43.14566, 1, 1, 999, 999
 715201305, 1, 0.0006535739, 0.00100604, 0.0013954, -0.0009641016, -0.002186937, -9.281871, 0, 0, 43.14565, 1, 1, 760, 800
 715241289, 0, 0.0009601213, 0.0006869392, 0.001451332, -0.001173154, -0.001653689, -9.286206, 0, 0, 43.14591, 1, 1, 999, 999
 715241289, 1, 0.0009422336, 0.0007427639, 0.001223027, -0.00197275, -0.001808318, -9.285505, 0, 0, 43.1459, 1, 1, 760, 800
 715281273, 0, 0.0009838837, 0.0007015633, 0.00137559, 1.110636E-05, -0.001984152, -9.292167, 0, 0, 43.14615, 1, 1, 999, 999
 715281273, 1, 0.0009170789, 0.0007684312, 0.001397463, -0.0002643246, -0.002487857, -9.29514, 0, 0, 43.14615, 1, 1, 760, 800
 715321257, 0, 0.00212525, 0.001801293, 0.001330725, -0.000999133, -0.0008040047, -9.381289, 0, 0, 43.1464, 1, 1, 999, 999
 715321257, 1, 0.002207944, 0.001683259, 0.001250413, -0.00185435, -0.0004621657, -9.380974, 0, 0, 43.1464, 1, 1, 760, 800
 715361241, 0, 0.003374298, 0.002145494, 0.001266735, -0.001260304, -0.002389094, -9.51919, 0, 0, 43.14665, 1, 1, 999, 999
 715361241, 1, 0.003245435, 0.002064898, 0.001412775, 2.749659E-05, -0.0046239, -9.516323, 0, 0, 43.14664, 1, 1, 760, 800
 715401225, 0, 0.003468336, 0.002319267, 0.001185705, -0.0003036544, -0.001751006, -9.669891, 0, 0, 43.1469, 1, 1, 999, 999
 715401225, 1, 0.003442089, 0.002320502, 0.00134345, -0.001321631, 0.0002876157, -9.671802, 0, 0, 43.14689, 1, 1, 760, 800
 715441209, 0, 0.002739476, 0.003059802, 0.001216769, -0.001413586, -0.002021634, -9.83326, 0, 0, 43.14714, 1, 1, 999, 999
 715441209, 1, 0.002656883, 0.00302317, 0.001191523, -8.259097E-05, -0.004505484, -9.829872, 0, 0, 43.14714, 1, 1, 760, 800
 715481193, 0, 0.003646084, 0.005394768, 0.001157306, -0.0003121217, -0.001678278, -10.00878, 0, 0, 43.14739, 1, 1, 999, 999
 715481193, 1, 0.003661347, 0.005276527, 0.001242594, -0.003335076, -0.003525464, -10.00678, 0, 0, 43.14738, 1, 1, 760, 800
 715521177, 0, 0.0037843, 0.00532438, 0.001181517, -0.0005705674, -0.001518714, -10.18919, 0, 0, 43.14764, 1, 1, 999, 999
 715521177, 1, 0.003765747, 0.005405879, 0.001199338, -0.0005469049, 0.001080798, -10.18703, 0, 0, 43.14763, 1, 1, 760, 800
 715561161, 0, 0.002101566, 0.003288517, 0.001104078, -0.001065573, -0.001451265, -10.38156, 0, 0, 43.14788, 1, 1, 999, 999
 715561161, 1, 0.002152254, 0.003494193, 0.0009495037, -0.002247179, -0.003858045, -10.38163, 0, 0, 43.14788, 1, 1, 760, 800
 715601145, 0, 0.0004950358, 0.00151772, 0.0009791775, -0.001788758, -0.001550884, -10.55146, 0, 0, 43.14813, 1, 1, 999, 999
 715601145, 1, 0.0007702321, 0.001505316, 0.0009298738, -0.000501565, -0.001602676, -10.55106, 0, 0, 43.14812, 1, 1, 760, 800
 715641129, 0, 0.0002273392, 0.0007554253, 0.0009308422, -0.002377831, -0.002795623, -10.64395, 0, 0, 43.14837, 1, 1, 999, 999
 715641129, 1, 0.0002610887, 0.0008275022, 0.001076132, -0.0009555478, -0.0003605107, -10.64278, 0, 0, 43.14837, 1, 1, 760, 800
 715681113, 0, 0.001376308, 0.001478151, 0.0009576561, 5.226032E-05, -0.0005696703, -10.7087, 0, 0, 43.14862, 1, 1, 999, 999
 715681113, 1, 0.001341263, 0.001453819, 0.0009746547, 0.0001656617, -0.000309715, -10.70963, 0, 0, 43.14862, 1, 1, 760, 800
 715721097, 0, 0.001430276, 0.0013637, 0.0009711069, -0.001219855, -0.0009673858, -10.76567, 0, 0, 43.14886, 1, 1, 999, 999
 715721097, 1, 0.001372117, 0.001502308, 0.000968072, -0.001081975, -0.002415602, -10.76393, 0, 0, 43.14886, 1, 1, 760, 800
 715761081, 0, 0.002825027, 0.001969958, 0.0008106873, -0.0004455519, -0.001451012, -10.81192, 0, 0, 43.14911, 1, 1, 999, 999
 715761081, 1, 0.002874629, 0.001955426, 0.0008201534, -0.0001215791, -0.0007000373, -10.81475, 0, 0, 43.14911, 1, 1, 760, 800
 715801065, 0, 0.003320075, 0.003098928, 0.0009186787, -0.0009570267, -0.001635422, -10.85475, 0, 0, 43.14936, 1, 1, 999, 999
 715801065, 1, 0.003362434, 0.003067842, 0.0009708629, -0.001401007, -0.002449798, -10.85428, 0, 0, 43.14936, 1, 1, 760, 800
 715841049, 0, -0.001844017, -0.001158518, 0.000909175, -0.0008509622, -0.001435905, -10.889, 0, 0, 43.1496, 1, 1, 999, 999
 715841049, 1, -0.001862204, -0.001147378, 0.0008700871, 0.0005491248, -0.0004996328, -10.88878, 0, 0, 43.1496, 1, 1, 760, 800
 715881033, 0, 0.0004380121, 0.0007746553, 0.0009374805, -0.002404524, -0.001359211, -10.91397, 0, 0, 43.14985, 1, 1, 999, 999
 715881033, 1, 0.0005658438, 0.0009687082, 0.00108758, -0.001159504, 0.0001501713, -10.91294, 0, 0, 43.14985, 1, 1, 760, 800
 715921017, 0, 0.001304231, 0.002118668, 0.0009436249, -0.002183863, -0.00234289, -10.93548, 0, 0, 43.1501, 1, 1, 999, 999
 715921017, 1, 0.001161737, 0.002197217, 0.0009120624, 0.000349856, -0.0008662925, -10.93364, 0, 0, 43.1501, 1, 1, 760, 800
 715961001, 0, 0.002124548, 0.000607557, 0.0009282082, -0.002055184, -0.001598171, -10.95352, 0, 0, 43.15034, 1, 1, 999, 999
 715961001, 1, 0.002203993, 0.0005613653, 0.0008812971, -0.0008921293, -0.002654412, -10.95509, 0, 0, 43.15034, 1, 1, 760, 800
 716000985, 0, 0.002066565, 0.002414438, 0.0008580366, -5.556695E-05, -0.001257258, -10.96521, 0, 0, 43.15059, 1, 1, 999, 999
 716000985, 1, 0.001956529, 0.002618602, 0.0007563272, -0.00240574, -0.002490892, -10.96536, 0, 0, 43.15059, 1, 1, 760, 800
 716040969, 0, 0.0008248047, 0.000422058, 0.0009782636, -0.0009767262, -0.002457193, -10.96901, 0, 0, 43.15084, 1, 1, 999, 999
 716040969, 1, 0.0007699004, 0.0005476075, 0.0009152578, -0.001964356, -0.003324609, -10.96864, 0, 0, 43.15084, 1, 1, 760, 800
 716080953, 0, 0.004013785, 0.00180601, 0.001033454, -0.0009174807, -0.001742994, -10.98227, 0, 0, 43.15108, 1, 1, 999, 999
 716080953, 1, 0.003935658, 0.001898119, 0.0009608941, -0.001200185, -0.0001337119, -10.98421, 0, 0, 43.15108, 1, 1, 760, 800
 716120937, 0, 0.002360018, 0.004014531, 0.0009304949, -0.002052321, -0.002267315, -10.98062, 0, 0, 43.15133, 1, 1, 999, 999
 716120937, 1, 0.002219232, 0.003850453, 0.0009574133, -0.0006039424, -0.00319604, -10.97988, 0, 0, 43.15133, 1, 1, 760, 800
 716160921, 0, 0.0007885132, 0.001382526, 0.0009607101, -0.0008666639, -0.002218059, -10.98134, 0, 0, 43.15158, 1, 1, 999, 999
 716160921, 1, 0.000599048, 0.0012546, 0.001060158, -0.0001353382, -0.002103346, -10.98314, 0, 0, 43.15158, 1, 1, 760, 800
 716200905, 0, 0.001264503, 0.003380733, 0.0009530188, 0.0004761243, -0.0009081247, -10.97394, 0, 0, 43.15182, 1, 1, 1000, 1000
 716200905, 1, 0.001295474, 0.003420611, 0.0009323491, 0.0005133242, -0.002626367, -10.97433, 0, 0, 43.15182, 1, 1, 760, 800
 716240889, 0, -0.00241107, -0.0007880913, 0.0009780424, -0.001909662, -0.002831631, -10.97888, 0, 0, 43.15207, 1, 1, 1000, 1000
 716240889, 1, -0.002611572, -0.000774095, 0.0008554225, -0.0002867177, 0.0001691845, -10.97742, 0, 0, 43.15207, 1, 1, 760, 800
 716280873, 0, 0.000960445, 0.001939924, 0.0009664801, -0.0009257357, -0.001392595, -10.96709, 0, 0, 43.15232, 1, 1, 1000, 1000
 716280873, 1, 0.0009677121, 0.001787986, 0.001176622, -0.001662838, -0.001410038, -10.96619, 0, 0, 43.15232, 1, 1, 760, 800
 716320857, 0, 0.002245405, 0.002956227, 0.00116116, -0.001437578, -0.001425035, -10.96564, 0, 0, 43.15257, 1, 1, 1000, 1000
 716320857, 1, 0.002159777, 0.003041165, 0.001068481, 0.0001882447, -0.0001872234, -10.96699, 0, 0, 43.15257, 1, 1, 760, 800
 716360841, 0, 0.001897576, 0.002573037, 0.001319649, -0.001261256, -0.0006858856, -10.95342, 0, 0, 43.15281, 1, 1, 1000, 1000
 716360841, 1, 0.001900557, 0.002574606, 0.001289067, -0.0006075827, 0.0004805541, -10.95185, 0, 0, 43.15281, 1, 1, 760, 800
 716400825, 0, 0.002012462, 0.00230617, 0.00128197, -0.001251376, -0.002331467, -10.93771, 0, 0, 43.15306, 1, 1, 1000, 1000
 716400825, 1, 0.001886616, 0.00235972, 0.001397309, -0.002345511, 0.002064242, -10.93714, 0, 0, 43.15306, 1, 1, 760, 800
 716440809, 0, 0.002745159, 0.003288036, 0.001348026, -0.001042742, -0.001204174, -10.94226, 0, 0, 43.1533, 1, 1, 1000, 1000
 716440809, 1, 0.002700275, 0.003277615, 0.001298778, -0.001335087, 0.001562485, -10.94213, 0, 0, 43.1533, 1, 1, 760, 800
 716480793, 0, 0.003953797, 0.003416352, 0.00132818, -0.0002272284, -0.002009246, -10.92994, 0, 0, 43.15355, 1, 1, 1000, 1000
 716480793, 1, 0.003977252, 0.003447918, 0.00150599, -0.002025743, -0.004163582, -10.92875, 0, 0, 43.15355, 1, 1, 760, 800
 716520777, 0, 0.003879445, 0.003370669, 0.001383637, -0.001481384, -0.00169733, -10.90946, 0, 0, 43.15379, 1, 1, 1000, 1000
 716520777, 1, 0.003868588, 0.003448849, 0.00125142, -0.002249857, -0.001482838, -10.91083, 0, 0, 43.15379, 1, 1, 760, 800
 716560761, 0, 0.002037001, 0.002995478, 0.001386613, -0.0005061204, -0.00228094, -10.91105, 0, 0, 43.15404, 1, 1, 1000, 1000
 716560761, 1, 0.00210083, 0.002754385, 0.001553219, -0.001686285, -0.002191453, -10.9116, 0, 0, 43.15404, 1, 1, 760, 800
 716601578, 0, 0.0003629722, 0.0007691475, 0.001346789, -0.0008226981, -0.001301509, -10.90377, 0, 0, 43.15429, 1, 1, 1000, 1000
 716601578, 1, 0.0004183643, 0.0008514572, 0.001433387, -0.002030422, -0.00130505, -10.90459, 0, 0, 43.15429, 1, 1, 760, 800
 716641562, 0, 0.000425373, 0.0009337285, 0.001410785, -0.002042007, -0.0009643449, -10.88374, 0, 0, 43.15454, 1, 1, 1000, 1000
 716641562, 1, 0.0004940978, 0.0008390158, 0.001283946, 0.0001659586, -0.0005683239, -10.88398, 0, 0, 43.15454, 1, 1, 760, 800
 716681546, 0, 0.0004455255, 0.0009463563, 0.001319181, -0.0007032152, -0.001978957, -10.86392, 0, 0, 43.15479, 1, 1, 1000, 1000
 716681546, 1, 0.0005351938, 0.0008693016, 0.00117783, -0.0004599884, -0.003347818, -10.86168, 0, 0, 43.15479, 1, 1, 760, 800
 716721530, 0, 0.00529647, 0.00473364, 0.001381553, -0.0008144292, -0.00101478, -10.8614, 0, 0, 43.15503, 1, 1, 1000, 1000
 716721530, 1, 0.005284301, 0.004887213, 0.001397421, -0.0004408096, -0.0004969076, -10.86188, 0, 0, 43.15503, 1, 1, 760, 800
 716761514, 0, 0.001388631, 0.003265579, 0.001517521, -0.002860269, -0.002956856, -10.85734, 0, 0, 43.15528, 1, 1, 1000, 1000
 716761514, 1, 0.001330214, 0.003503258, 0.001498719, -0.001587756, -0.002906676, -10.85356, 0, 0, 43.15528, 1, 1, 760, 800
 716801498, 0, 0.001536348, 0.003991714, 0.001569325, -0.0003770553, -0.001690625, -10.83912, 0, 0, 43.15553, 1, 1, 1000, 1000
 716801498, 1, 0.001320415, 0.003978639, 0.001651514, 0.00123827, -0.004955895, -10.83882, 0, 0, 43.15553, 1, 1, 760, 800
 716841482, 0, 0.001477218, 0.001063001, 0.001460775, -0.0009848, -0.001100528, -10.817, 0, 0, 43.15577, 1, 1, 1000, 1000
 716841482, 1, 0.001647673, 0.001085483, 0.001584985, -0.0006111272, -0.000271588, -10.81575, 0, 0, 43.15577, 1, 1, 760, 800
 716881466, 0, 0.001569549, 0.001476697, 0.001524679, -0.001022277, -0.00196725, -10.71781, 0, 0, 43.15602, 1, 1, 1000, 1000
 716881466, 1, 0.001655213, 0.001466051, 0.001528339, -0.002334468, -0.002190373, -10.71904, 0, 0, 43.15602, 1, 1, 760, 800
 716921450, 0, 0.004196898, 0.0009548283, 0.001566297, -0.0008475945, -0.002807178, -10.59871, 0, 0, 43.15626, 1, 1, 1000, 1000
 716921450, 1, 0.004188595, 0.001117756, 0.001470285, -0.0007323636, -0.00195719, -10.59933, 0, 0, 43.15626, 1, 1, 760, 800
 716961434, 0, 0.001813379, 0.0008219889, 0.001439075, 0.0001275531, -0.0007570024, -10.49102, 0, 0, 43.15651, 1, 1, 1000, 1000
 716961434, 1, 0.001874882, 0.0007145226, 0.001435478, 0.001463377, -0.0002187123, -10.48903, 0, 0, 43.15651, 1, 1, 760, 800
 717001418, 0, 0.001897531, 0.0004368419, 0.001457319, -0.0008346584, -0.001213522, -10.38732, 0, 0, 43.15675, 1, 1, 1000, 1000
 717001418, 1, 0.001936899, 0.000547879, 0.001536144, -0.001093663, -0.00262657, -10.38879, 0, 0, 43.15675, 1, 1, 760, 800
 717041402, 0, 0.00191487, 0.0007157119, 0.001396778, 1.073648E-05, -0.001970025, -10.29618, 0, 0, 43.157, 1, 1, 1000, 1000
 717041402, 1, 0.001937549, 0.0005855508, 0.001454254, 0.001470298, -0.002322182, -10.29489, 0, 0, 43.157, 1, 1, 760, 800
 717081386, 0, 0.001980285, 0.001762828, 0.001526819, -0.001288301, -0.0008066445, -10.21634, 0, 0, 43.15725, 1, 1, 1000, 1000
 717081386, 1, 0.001922205, 0.001725366, 0.001396781, 0.001191747, -0.003770321, -10.21901, 0, 0, 43.15724, 1, 1, 760, 800
 717121370, 0, 0.002943099, 0.002167003, 0.001545774, -0.0002115047, -0.00110872, -10.14032, 0, 0, 43.15749, 1, 1, 1000, 1000
 717121370, 1, 0.002940698, 0.002117783, 0.001488789, 0.002098256, -0.002736157, -10.14152, 0, 0, 43.15748, 1, 1, 760, 800
 717161354, 0, 0.001777888, 0.001331616, 0.001417466, -0.0005717209, -0.0001359995, -10.07067, 0, 0, 43.15773, 1, 1, 1000, 1000
 717161354, 1, 0.00196852, 0.0013685, 0.001370056, -0.001631479, -0.0006672809, -10.0708, 0, 0, 43.15773, 1, 1, 760, 800
 717201338, 0, 0.003159711, 0.001609878, 0.001342142, -0.0007136581, -0.0005762167, -10.01373, 0, 0, 43.15798, 1, 1, 999, 999
 717201338, 1, 0.003256286, 0.00182125, 0.001112825, -0.0002968379, -0.003974162, -10.01455, 0, 0, 43.15797, 1, 1, 760, 800
 717241322, 0, 0.003354464, 0.002032701, 0.001299788, -0.0004224762, -0.0007596167, -9.957161, 0, 0, 43.15823, 1, 1, 999, 999
 717241322, 1, 0.003098542, 0.001935248, 0.001344364, 0.0003985634, -0.0004780726, -9.956185, 0, 0, 43.15822, 1, 1, 760, 800
 717281306, 0, -0.001128069, -0.0009929291, 0.001306205, 2.89763E-05, -0.001088719, -9.909091, 0, 0, 43.15847, 1, 1, 999, 999
 717281306, 1, -0.001192791, -0.0008786627, 0.001426091, -0.002632927, -0.002650768, -9.909925, 0, 0, 43.15847, 1, 1, 760, 800
 717321290, 0, 0.003539822, 0.004004657, 0.001261047, -1.822353E-05, -0.0009519037, -9.868932, 0, 0, 43.15872, 1, 1, 999, 999
 717321290, 1, 0.003295195, 0.003952118, 0.001192102, -0.001477575, -0.003684982, -9.87174, 0, 0, 43.15871, 1, 1, 760, 800
 717361274, 0, 0.002258321, 8.562505E-05, 0.001247419, 0.0001763641, -0.0009554189, -9.84063, 0, 0, 43.15896, 1, 1, 999, 999
 717361274, 1, 0.002220886, -0.0001727048, 0.001166591, -0.001535159, -0.002477341, -9.843404, 0, 0, 43.15896, 1, 1, 760, 800
 717401258, 0, 0.0002653675, 0.003087245, 0.001204995, -0.0002533955, -0.001102574, -9.808014, 0, 0, 43.15921, 1, 1, 999, 999
 717401258, 1, 3.261873E-05, 0.003282575, 0.001474256, 0.001022907, -0.003441264, -9.807158, 0, 0, 43.1592, 1, 1, 760, 800
 717441242, 0, 0.001412419, -0.001118659, 0.001270463, -0.0003190021, -0.0006688825, -9.77516, 0, 0, 43.15945, 1, 1, 999, 999
 717441242, 1, 0.00139472, -0.001121918, 0.001304065, -0.001430446, 0.0007960529, -9.77787, 0, 0, 43.15945, 1, 1, 760, 800
 717481226, 0, 0.00233559, 0.001034748, 0.001234338, -0.0003724592, -0.001177335, -9.745704, 0, 0, 43.1597, 1, 1, 999, 999
 717481226, 1, 0.002434665, 0.00124075, 0.001170795, 0.0004441585, -0.002454129, -9.746103, 0, 0, 43.15969, 1, 1, 760, 800
 717521210, 0, 0.002503295, 0.003831874, 0.001285963, -0.0006624125, -0.002183753, -9.737704, 0, 0, 43.15995, 1, 1, 999, 999
 717521210, 1, 0.002534065, 0.003723405, 0.00127147, -0.0004950454, -0.0006434438, -9.735295, 0, 0, 43.15994, 1, 1, 760, 800
 717561194, 0, 0.002321319, -3.56118E-05, 0.001468395, -3.979907E-05, -0.002614243, -9.711786, 0, 0, 43.16019, 1, 1, 999, 999
 717561194, 1, 0.002209047, -6.273222E-05, 0.001409717, -0.001891307, -0.0006952255, -9.712008, 0, 0, 43.16018, 1, 1, 760, 800
 717601178, 0, 0.002156221, 0.001950175, 0.001500965, 0.0002714702, -0.001280453, -9.707926, 0, 0, 43.16043, 1, 1, 999, 999
 717601178, 1, 0.002007217, 0.001962394, 0.001436211, -7.609702E-05, 0.001365724, -9.706971, 0, 0, 43.16043, 1, 1, 760, 800
 717641162, 0, 0.0002013269, 0.001237473, 0.001358772, -0.0006025996, -0.0007570672, -9.686476, 0, 0, 43.16068, 1, 1, 999, 999
 717641162, 1, 0.0001461775, 0.001363084, 0.001445966, 0.0002113826, 0.0006060631, -9.688361, 0, 0, 43.16068, 1, 1, 760, 800
 717681146, 0, 0.000341879, 0.003160928, 0.001319099, -0.001219689, -0.002006501, -9.685549, 0, 0, 43.16093, 1, 1, 999, 999
 717681146, 1, 0.0004985345, 0.003039333, 0.001244305, -0.001417853, 0.0007699903, -9.686106, 0, 0, 43.16092, 1, 1, 760, 800
 717721130, 0, 0.0004135502, 0.002907558, 0.001285667, -0.0008554951, -0.001982238, -9.687746, 0, 0, 43.16117, 1, 1, 999, 999
 717721130, 1, 0.0002931256, 0.002974604, 0.001347871, -0.001100146, -0.0005631386, -9.687441, 0, 0, 43.16117, 1, 1, 760, 800
 717761114, 0, 0.0002005, 0.003932755, 0.001328782, 0.0001206273, -0.002011755, -9.669503, 0, 0, 43.16141, 1, 1, 999, 999
 717761114, 1, 0.0004444513, 0.003924657, 0.001511139, -0.0007554166, -0.00144212, -9.671593, 0, 0, 43.16141, 1, 1, 760, 800
 717801098, 0, 0.0006501506, 0.004721164, 0.001309039, -0.0002177876, -0.002244444, -9.676875, 0, 0, 43.16166, 1, 1, 999, 999
 717801098, 1, 0.0003645081, 0.004803562, 0.001309442, 0.0004539078, -0.003803527, -9.677427, 0, 0, 43.16166, 1, 1, 760, 800
 717841082, 0, 0.0008621939, 0.003442576, 0.001365727, -0.0008803369, -0.001840327, -9.674107, 0, 0, 43.1619, 1, 1, 999, 999
 717841082, 1, 0.0005091736, 0.003598612, 0.001341249, 0.001742971, -0.0002906301, -9.672488, 0, 0, 43.1619, 1, 1, 760, 800
 717881066, 0, 0.002488839, 0.001906585, 0.001169901, -0.001174714, -0.001458951, -9.676801, 0, 0, 43.16214, 1, 1, 999, 999
 717881066, 1, 0.002308575, 0.001864069, 0.001129496, -0.00116253, -0.004326938, -9.676291, 0, 0, 43.16214, 1, 1, 760, 800
 717921050, 0, 0.003008864, 0.001286968, 0.001101041, -0.0008065932, -0.002292264, -9.678718, 0, 0, 43.16239, 1, 1, 999, 999
 717921050, 1, 0.003098696, 0.001477952, 0.001170473, 0.002368839, -0.004467161, -9.676689, 0, 0, 43.16239, 1, 1, 760, 800
 717961034, 0, 0.002778762, 0.0006004667, 0.0009571025, -0.00106844, -0.002229454, -9.680854, 0, 0, 43.16264, 1, 1, 999, 999
 717961034, 1, 0.002715129, 0.0007547605, 0.0009817464, -0.002088996, -0.0005968653, -9.681824, 0, 0, 43.16264, 1, 1, 760, 800
 718001018, 0, 0.0005953828, -0.0002572998, 0.0009773987, 0.0002197254, -0.002588137, -9.686081, 0, 0, 43.16288, 1, 1, 999, 999
 718001018, 1, 0.0008324174, -7.52732E-05, 0.0009543796, 0.001623434, -0.001073654, -9.685843, 0, 0, 43.16288, 1, 1, 760, 800
 718041002, 0, -0.0005308705, -0.001198415, 0.001015113, -0.0007213562, -0.001848202, -9.690914, 0, 0, 43.16312, 1, 1, 999, 999
 718041002, 1, -0.0005301314, -0.001258362, 0.001040723, -0.002271555, -0.003040741, -9.689545, 0, 0, 43.16312, 1, 1, 760, 800
 718080986, 0, 0.001530964, -0.000628248, 0.0009922581, -0.000952906, -0.001637335, -9.694691, 0, 0, 43.16337, 1, 1, 999, 999
 718080986, 1, 0.00148371, -0.0004208202, 0.001055525, -0.0005132142, -0.001523671, -9.695085, 0, 0, 43.16337, 1, 1, 760, 800
 718120970, 0, -1.893284E-05, 0.0003273044, 0.0009337805, 0.0002840293, -0.001477807, -9.703463, 0, 0, 43.16362, 1, 1, 999, 999
 718120970, 1, 0.0001969732, 0.0001369518, 0.0009655442, -0.001623796, -0.001503833, -9.70256, 0, 0, 43.16362, 1, 1, 760, 800
 718160954, 0, -0.0001315949, 0.003171752, 0.0009283631, 5.412994E-05, -0.002839414, -9.715551, 0, 0, 43.16386, 1, 1, 999, 999
 718160954, 1, -0.0001690563, 0.003166182, 0.0007847635, -0.001363198, -0.005332471, -9.715572, 0, 0, 43.16386, 1, 1, 760, 800
 718200938, 0, 0.0007572068, 0.002944978, 0.0008793427, -0.0007906295, -0.002184281, -9.718512, 0, 0, 43.1641, 1, 1, 999, 999
 718200938, 1, 0.0008116649, 0.003004848, 0.0009788851, 0.001124101, -0.001021143, -9.718418, 0, 0, 43.1641, 1, 1, 760, 800
 718240922, 0, 0.0002640229, 0.0008501683, 0.0009025969, 0.0004552997, -0.001234374, -9.715517, 0, 0, 43.16435, 1, 1, 999, 999
 718240922, 1, 0.0004389336, 0.000927763, 0.0007779379, -0.001347439, -0.001973356, -9.714607, 0, 0, 43.16435, 1, 1, 760, 800
 718280906, 0, 0.002818665, 0.0009501767, 0.000843283, -0.0001957123, -0.001139915, -9.721091, 0, 0, 43.16459, 1, 1, 999, 999
 718280906, 1, 0.002722266, 0.001043271, 0.0007397222, 0.0003847484, -0.001930563, -9.72044, 0, 0, 43.16459, 1, 1, 760, 800
 718320890, 0, 0.002720149, 0.0009536913, 0.0008293631, 0.0002900398, -0.001536864, -9.721698, 0, 0, 43.16484, 1, 1, 999, 999
 718320890, 1, 0.002763668, 0.000877131, 0.000739695, -0.0008134178, -0.002602599, -9.725586, 0, 0, 43.16484, 1, 1, 760, 800
 718360874, 0, 0.002685417, 0.001088885, 0.0007647299, -0.0008596763, -0.002239098, -9.724549, 0, 0, 43.16508, 1, 1, 999, 999
 718360874, 1, 0.002588896, 0.001073738, 0.0009103099, 0.0003631522, -0.001226023, -9.726467, 0, 0, 43.16508, 1, 1, 760, 800
 718400858, 0, 0.001322427, 2.516521E-05, 0.0008857523, 0.0001991898, -0.00178334, -9.752478, 0, 0, 43.16533, 1, 1, 999, 999
 718400858, 1, 0.001144466, -0.0001190639, 0.0009580477, 0.001955433, -0.003014096, -9.750473, 0, 0, 43.16533, 1, 1, 760, 800
 718440842, 0, 0.001224768, -0.001180725, 0.0008741648, -0.0003205499, -0.002401128, -9.747375, 0, 0, 43.16557, 1, 1, 999, 999
 718440842, 1, 0.00110486, -0.001191335, 0.0008485705, 0.0001813024, -0.002117655, -9.749088, 0, 0, 43.16557, 1, 1, 760, 800
 718480826, 0, 0.002640238, 0.0003169063, 0.0009796069, 0.0001055974, -0.001053725, -9.758401, 0, 0, 43.16582, 1, 1, 999, 999
 718480826, 1, 0.002648218, 0.0005569439, 0.0009244657, -0.0006169368, -0.001795784, -9.7604, 0, 0, 43.16582, 1, 1, 760, 800
 718520810, 0, 0.002737279, 0.0021677, 0.001084409, -0.000333759, -0.002086154, -9.763098, 0, 0, 43.16606, 1, 1, 999, 999
 718520810, 1, 0.002731231, 0.002259863, 0.001018733, -0.0005378138, -0.002158954, -9.764189, 0, 0, 43.16606, 1, 1, 760, 800
 718560794, 0, 0.002714001, 0.002050156, 0.001120668, 0.0003263538, -0.001358519, -9.763164, 0, 0, 43.16631, 1, 1, 999, 999
 718560794, 1, 0.002709873, 0.002247782, 0.0009222644, 0.00128981, -0.002225809, -9.765718, 0, 0, 43.16631, 1, 1, 760, 800
 718600778, 0, 0.002663557, 0.002066098, 0.00110285, 0.001446449, -0.002568203, -9.76568, 0, 0, 43.16655, 1, 1, 999, 999
 718600778, 1, 0.002530782, 0.002109893, 0.001122869, 0.0006819514, -0.001623702, -9.766001, 0, 0, 43.16655, 1, 1, 760, 800
 718640762, 0, -0.0003086769, 0.002067504, 0.001141913, 0.000336199, -0.002398412, -9.766682, 0, 0, 43.16679, 1, 1, 999, 999
 718640762, 1, -0.0004390648, 0.002146562, 0.001117281, 0.0001708736, -0.002333588, -9.76733, 0, 0, 43.16679, 1, 1, 760, 800
 718681579, 0, -0.0006470461, 0.001878048, 0.001341865, 0.0006818697, -0.00210285, -9.784642, 0, 0, 43.16705, 1, 1, 999, 999
 718681579, 1, -0.0007399586, 0.001804442, 0.001382085, 0.001882538, -0.002686747, -9.783627, 0, 0, 43.16705, 1, 1, 760, 800
 718721563, 0, -0.0004897235, 0.001345825, 0.001343744, 0.000110015, -0.001968149, -9.785861, 0, 0, 43.16729, 1, 1, 999, 999
 718721563, 1, -0.0004171122, 0.001708934, 0.001284211, 0.003171838, -0.0003787974, -9.788114, 0, 0, 43.16729, 1, 1, 760, 800
 718761547, 0, 0.001132417, 0.0006484207, 0.001344898, 9.026244E-05, -0.0003833274, -9.787126, 0, 0, 43.16753, 1, 1, 999, 999
 718761547, 1, 0.001077731, 0.0005813807, 0.001289007, 0.001926309, -0.001340798, -9.78739, 0, 0, 43.16753, 1, 1, 760, 800
 718801531, 0, 0.001794866, -7.010791E-05, 0.001347399, -0.00117004, -0.003069075, -9.791526, 0, 0, 43.16778, 1, 1, 999, 999
 718801531, 1, 0.002014425, -0.0001376803, 0.001177276, 9.068244E-05, -0.001758349, -9.792742, 0, 0, 43.16778, 1, 1, 760, 800
 718841515, 0, 0.002401108, 0.0005124857, 0.001317376, 0.0009225419, -0.00189671, -9.798127, 0, 0, 43.16802, 1, 1, 999, 999
 718841515, 1, 0.002417418, 0.0003997353, 0.001176773, 0.0002169164, -0.0009952879, -9.793722, 0, 0, 43.16802, 1, 1, 760, 800
 718881499, 0, 0.0006485097, 9.361061E-05, 0.001167713, 4.194659E-05, -0.001471201, -9.80088, 0, 0, 43.16827, 1, 1, 999, 999
 718881499, 1, 0.0006660535, 0.0001109716, 0.001240075, -0.001774351, -0.0004643736, -9.799683, 0, 0, 43.16827, 1, 1, 760, 800
 718921483, 0, 0.001188318, 0.0002039253, 0.001147726, -0.0001725943, -0.001162165, -9.803993, 0, 0, 43.16851, 1, 1, 999, 999
 718921483, 1, 0.001289288, 0.000261959, 0.001177061, 0.0005177481, 0.002685769, -9.801551, 0, 0, 43.16851, 1, 1, 760, 800
 718961467, 0, 0.001207922, 0.0001812792, 0.001171277, 6.835477E-05, -0.001772144, -9.80212, 0, 0, 43.16875, 1, 1, 999, 999
 718961467, 1, 0.00129019, 0.0003427729, 0.00120371, 0.000522824, -0.002071645, -9.802414, 0, 0, 43.16875, 1, 1, 760, 800
 719001451, 0, 0.001197504, 0.0002385659, 0.001148904, -2.726342E-05, -0.0007544722, -9.803814, 0, 0, 43.169, 1, 1, 999, 999
 719001451, 1, 0.001221331, 0.0003214786, 0.001242743, 0.001447042, -0.003196219, -9.802896, 0, 0, 43.169, 1, 1, 760, 800
 719041435, 0, 0.001242618, 0.0002796837, 0.001154006, 0.001383655, -0.002541867, -9.80411, 0, 0, 43.16924, 1, 1, 999, 999
 719041435, 1, 0.001224035, 0.0004846538, 0.001086969, -0.00146082, -0.002071926, -9.804109, 0, 0, 43.16924, 1, 1, 760, 800
 719081419, 0, 0.001312797, 0.0003146486, 0.00123206, -0.0006575093, -0.001221713, -9.802286, 0, 0, 43.16949, 1, 1, 999, 999
 719081419, 1, 0.001120612, 0.0003216246, 0.001270186, -0.0005243318, -0.0006688332, -9.803801, 0, 0, 43.16949, 1, 1, 760, 800
 719121403, 0, 0.00124268, 0.0007001838, 0.001247442, 9.439136E-05, -0.001594396, -9.805562, 0, 0, 43.16973, 1, 1, 999, 999
 719121403, 1, 0.001388667, 0.0006445386, 0.0013182, 0.0003602041, -0.001423629, -9.804792, 0, 0, 43.16973, 1, 1, 760, 800
 719161387, 0, 0.001256457, 0.003427859, 0.001070926, -7.946648E-05, -0.0010979, -9.803999, 0, 0, 43.16998, 1, 1, 999, 999
 719161387, 1, 0.001217018, 0.003497248, 0.00106662, 0.001493904, -0.003174763, -9.804253, 0, 0, 43.16998, 1, 1, 760, 800
 719201371, 0, 0.001953608, 0.003318431, 0.001161794, 0.0005729859, -0.002069737, -9.808379, 0, 0, 43.17022, 1, 1, 1000, 1000
 719201371, 1, 0.001744194, 0.003214258, 0.001136092, 0.0004795126, -0.0005830351, -9.807843, 0, 0, 43.17022, 1, 1, 760, 800
 719241355, 0, 0.002470785, 0.003201663, 0.001216456, 1.136941E-05, -0.001788897, -9.821299, 0, 0, 43.17046, 1, 1, 1000, 1000
 719241355, 1, 0.002346144, 0.003185849, 0.001239775, -0.0004610907, -0.003227098, -9.824421, 0, 0, 43.17046, 1, 1, 760, 800
 719281339, 0, 0.003496036, 0.004586066, 0.001257393, 0.0004645467, -0.001507403, -9.818783, 0, 0, 43.17071, 1, 1, 1000, 1000
 719281339, 1, 0.003428946, 0.004402572, 0.001403376, 0.0002880402, 0.001556533, -9.820494, 0, 0, 43.1707, 1, 1, 760, 800
 719321323, 0, 0.002069853, 0.002468429, 0.001243789, 8.105578E-05, -0.0005106328, -9.818214, 0, 0, 43.17095, 1, 1, 1000, 1000
 719321323, 1, 0.002001619, 0.0026558, 0.001343083, 0.002657224, 0.0001936828, -9.817017, 0, 0, 43.17094, 1, 1, 760, 800
 719361307, 0, 0.0003399937, 0.000837802, 0.001270532, -3.127198E-05, -0.0004542785, -9.818544, 0, 0, 43.1712, 1, 1, 1000, 1000
 719361307, 1, 0.0001611906, 0.0008463245, 0.001300784, -0.001344333, -0.002926402, -9.819806, 0, 0, 43.17119, 1, 1, 760, 800
 719401291, 0, -0.0005791282, 0.0002513583, 0.001242851, 9.358078E-05, -0.0009597352, -9.819769, 0, 0, 43.17144, 1, 1, 1000, 1000
 719401291, 1, -0.0006553853, 0.0005369397, 0.001125871, 0.001684615, -0.0009035312, -9.818931, 0, 0, 43.17143, 1, 1, 760, 800
 719441275, 0, -0.0005499378, 0.0005773079, 0.001215952, -4.606892E-05, -0.001758119, -9.820829, 0, 0, 43.17168, 1, 1, 1000, 1000
 719441275, 1, -0.0004109447, 0.000512821, 0.001256498, -0.001162808, -0.001003488, -9.822008, 0, 0, 43.17168, 1, 1, 760, 800
 719481259, 0, 0.0005387692, 0.0005051669, 0.001249684, -0.0001010371, -0.0001781028, -9.820269, 0, 0, 43.17193, 1, 1, 1000, 1000
 719481259, 1, 0.0005492025, 0.0002703001, 0.001126093, 0.001207982, -0.0003838771, -9.819155, 0, 0, 43.17192, 1, 1, 760, 800
 719521243, 0, 0.003032363, 0.0004756898, 0.001271928, 8.158004E-05, -0.001427347, -9.820045, 0, 0, 43.17217, 1, 1, 1000, 1000
 719521243, 1, 0.003044602, 0.0006376669, 0.001317018, 0.001794186, -0.001787005, -9.82003, 0, 0, 43.17216, 1, 1, 760, 800
 719561227, 0, 0.001806659, -0.0001583575, 0.001318896, 0.0009154334, -0.001647694, -9.821226, 0, 0, 43.17242, 1, 1, 1000, 1000
 719561227, 1, 0.001824121, -0.0003159468, 0.001380806, -7.664608E-05, -0.002406068, -9.820157, 0, 0, 43.17241, 1, 1, 760, 800
 719601211, 0, 0.002581517, -0.0002527047, 0.001371005, 0.0002212093, -0.0006126633, -9.821889, 0, 0, 43.17266, 1, 1, 1000, 1000
 719601211, 1, 0.002854695, -5.501277E-05, 0.001409207, -0.001502649, -0.0001607902, -9.821887, 0, 0, 43.17265, 1, 1, 760, 800
 719641195, 0, 0.002896019, -0.00112715, 0.001290136, 4.526565E-05, -0.000629429, -9.820699, 0, 0, 43.1729, 1, 1, 1000, 1000
 719641195, 1, 0.003081661, -0.00110746, 0.001241577, 0.0002759619, -0.001765146, -9.819139, 0, 0, 43.1729, 1, 1, 760, 800
 719681179, 0, 0.003689799, -0.000168586, 0.001311662, 0.0005707276, -0.0006905199, -9.823097, 0, 0, 43.17315, 1, 1, 1000, 1000
 719681179, 1, 0.003605949, -3.274754E-05, 0.001251671, -0.001035962, 0.0005756667, -9.825576, 0, 0, 43.17314, 1, 1, 760, 800
 719721163, 0, 0.002017933, -1.058824E-05, 0.001520803, -7.635613E-05, -0.0007936088, -9.823181, 0, 0, 43.17339, 1, 1, 1000, 1000
 719721163, 1, 0.002003013, 5.13914E-05, 0.001518963, -0.001197216, -0.0003743937, -9.822952, 0, 0, 43.17338, 1, 1, 760, 800
 719761147, 0, 0.002385194, -7.892544E-06, 0.001546797, -0.000384772, -0.0009941299, -9.82052, 0, 0, 43.17363, 1, 1, 1000, 1000
 719761147, 1, 0.002462136, 6.110132E-05, 0.001531283, 0.002322269, 0.0002824803, -9.820215, 0, 0, 43.17363, 1, 1, 760, 800
 719801131, 0, 0.003003698, 0.0002600361, 0.001540942, -9.816109E-05, -0.0004168542, -9.820307, 0, 0, 43.17387, 1, 1, 1000, 1000
 719801131, 1, 0.003059561, 0.0003062832, 0.001656172, 0.0003188035, 0.0006686684, -9.8197, 0, 0, 43.17387, 1, 1, 760, 800
 719841115, 0, 0.00336849, 0.002074753, 0.001502003, 0.0006800195, -0.0007081762, -9.822964, 0, 0, 43.17411, 1, 1, 1000, 1000
 719841115, 1, 0.003266581, 0.002102369, 0.001433411, 0.001700148, 0.0007181691, -9.824026, 0, 0, 43.17411, 1, 1, 760, 800
 719881099, 0, 0.003129173, 0.002820943, 0.001341431, -0.0002688557, -0.0009303346, -9.823032, 0, 0, 43.17436, 1, 1, 1000, 1000
 719881099, 1, 0.00306658, 0.002731602, 0.001521864, -0.0004045638, -0.0003317681, -9.822527, 0, 0, 43.17436, 1, 1, 760, 800
 719921083, 0, 0.00304805, 0.003589072, 0.001439131, 0.0003453846, -0.0009544237, -9.830982, 0, 0, 43.1746, 1, 1, 1000, 1000
 719921083, 1, 0.003153189, 0.003486301, 0.001422157, -8.85528E-05, -0.0003195179, -9.832512, 0, 0, 43.1746, 1, 1, 760, 800
 719961067, 0, 0.002719551, 0.00360798, 0.001540063, -0.0003150962, -0.0008184179, -9.823201, 0, 0, 43.17484, 1, 1, 1000, 1000
 719961067, 1, 0.002537864, 0.003631294, 0.001540389, 0.002078836, -0.001054936, -9.822939, 0, 0, 43.17484, 1, 1, 760, 800
 720001051, 0, 0.002732272, 0.002602984, 0.001502841, 0.0001560789, 0.001264183, -9.823278, 0, 0, 43.17509, 1, 1, 1000, 1000
 720001051, 1, 0.002891293, 0.002752809, 0.001398644, -0.000940363, -0.00122713, -9.824034, 0, 0, 43.17509, 1, 1, 760, 800
 720041035, 0, 0.00174082, 0.0008494578, 0.001481663, 0.0003991459, 1.255919E-05, -9.82082, 0, 0, 43.17533, 1, 1, 1000, 1000
 720041035, 1, 0.001867933, 0.001067469, 0.001396005, 0.002980802, 0.0003671051, -9.818544, 0, 0, 43.17533, 1, 1, 760, 800
 720081019, 0, 0.001797024, 0.000470004, 0.001498779, -0.0005120116, 0.0001358204, -9.820051, 0, 0, 43.17558, 1, 1, 1000, 1000
 720081019, 1, 0.001699316, 0.0004134515, 0.001497678, 0.002464315, 0.0009440281, -9.820765, 0, 0, 43.17558, 1, 1, 760, 800
 720121003, 0, 0.004261723, 0.001287464, 0.001512191, -0.001120381, 0.0003902387, -9.825257, 0, 0, 43.17582, 1, 1, 1000, 1000
 720121003, 1, 0.004232781, 0.001427426, 0.001682085, 0.001115222, -0.001345217, -9.82425, 0, 0, 43.17582, 1, 1, 760, 800
 720160987, 0, 0.003358307, 0.0008548453, 0.001424317, 0.0001229644, -0.001117062, -9.818167, 0, 0, 43.17606, 1, 1, 1000, 1000
 720160987, 1, 0.003224499, 0.000818843, 0.001332736, 0.001108734, -0.0009250965, -9.820236, 0, 0, 43.17606, 1, 1, 760, 800
 720200971, 0, 0.001976654, -0.0004550589, 0.001414443, -0.0006995677, -0.0007194729, -9.818277, 0, 0, 43.1763, 1, 1, 999, 999
 720200971, 1, 0.002332132, -0.0004269033, 0.00141934, -0.001780033, 0.0007433955, -9.817957, 0, 0, 43.1763, 1, 1, 760, 800
 720240955, 0, 0.0005749143, 0.0006700092, 0.001309876, -0.000308493, -0.001037436, -9.818304, 0, 0, 43.17655, 1, 1, 999, 999
 720240955, 1, 0.0005168983, 0.0006735956, 0.001462942, -0.002400266, -0.002543671, -9.817251, 0, 0, 43.17655, 1, 1, 760, 800
 720280939, 0, 9.999984E-05, 0.0007377327, 0.001357808, -0.0003727959, -0.001376535, -9.817562, 0, 0, 43.17679, 1, 1, 999, 999
 720280939, 1, 0.0001529927, 0.0007608621, 0.00132454, -0.001149918, -0.0010623, -9.818932, 0, 0, 43.17679, 1, 1, 760, 800
 720320923, 0, 0.002253703, -8.632118E-05, 0.001252318, 0.0005896412, 0.0001347746, -9.816538, 0, 0, 43.17703, 1, 1, 999, 999
 720320923, 1, 0.002145007, -6.913628E-05, 0.001236256, 0.001918347, -0.001572453, -9.813866, 0, 0, 43.17703, 1, 1, 760, 800
 720360907, 0, 0.001996286, -0.0006106787, 0.001249771, 0.0002806922, -0.0005352394, -9.816258, 0, 0, 43.17728, 1, 1, 999, 999
 720360907, 1, 0.002124448, -0.0005092268, 0.001013633, 0.00128594, 0.001202231, -9.816153, 0, 0, 43.17728, 1, 1, 760, 800
 720400891, 0, 0.001977496, -2.77278E-05, 0.001218254, 0.0008150515, 0.0004572818, -9.817226, 0, 0, 43.17752, 1, 1, 999, 999
 720400891, 1, 0.001588137, -2.077218E-05, 0.001262928, -0.000559165, -8.971398E-05, -9.814442, 0, 0, 43.17752, 1, 1, 760, 800
 720440875, 0, 0.002495054, 0.000621067, 0.001135172, 0.000117062, -0.0004999219, -9.814175, 0, 0, 43.17776, 1, 1, 999, 999
 720440875, 1, 0.002517042, 0.000596402, 0.001287204, -0.001433174, 0.002231338, -9.812781, 0, 0, 43.17776, 1, 1, 760, 800
 720480859, 0, 0.001854926, -0.0004716836, 0.001045839, 0.0009183295, 0.0002352351, -9.813871, 0, 0, 43.17801, 1, 1, 999, 999
 720480859, 1, 0.002057857, -0.0002718825, 0.00114898, -0.0003062874, 0.001040512, -9.815104, 0, 0, 43.17801, 1, 1, 760, 800
 720520843, 0, 0.005761469, 0.0004992009, 0.001047683, -0.0001042788, 0.001146612, -9.815559, 0, 0, 43.17825, 1, 1, 999, 999
 720520843, 1, 0.005842639, 0.0005471362, 0.001095925, 0.0003815269, -0.001043032, -9.814317, 0, 0, 43.17825, 1, 1, 760, 800
 720560827, 0, 0.003578524, -5.339674E-05, 0.001074281, -0.000121975, -0.001829829, -9.81633, 0, 0, 43.17849, 1, 1, 999, 999
 720560827, 1, 0.003590639, 3.127112E-05, 0.001145245, -0.001027275, -0.00205358, -9.814981, 0, 0, 43.17849, 1, 1, 760, 800
 720600811, 0, 0.002440901, -0.0004633355, 0.001031129, -0.0003814503, -0.0006741534, -9.813771, 0, 0, 43.17873, 1, 1, 999, 999
 720600811, 1, 0.00244221, -0.0005729241, 0.0009088208, 0.001691451, 8.083557E-05, -9.813812, 0, 0, 43.17873, 1, 1, 760, 800
 720640795, 0, 0.001013842, -0.0003138703, 0.0009440903, -2.636854E-05, -0.0009107111, -9.814329, 0, 0, 43.17898, 1, 1, 999, 999
 720640795, 1, 0.0009980787, -0.0003948997, 0.001162366, 0.0004567495, 0.001117541, -9.813635, 0, 0, 43.17898, 1, 1, 760, 800
 720680779, 0, 0.00119369, -0.0005194839, 0.0009364203, -0.0007731886, -0.0002175268, -9.815031, 0, 0, 43.17922, 1, 1, 999, 999
 720680779, 1, 0.000971577, -0.0006733569, 0.0009390014, -0.0001526347, -0.00131094, -9.816138, 0, 0, 43.17922, 1, 1, 760, 800
 720720763, 0, 0.003524304, 0.0007266704, 0.0008646254, -0.0007151248, 4.041304E-05, -9.815976, 0, 0, 43.17946, 1, 1, 999, 999
 720720763, 1, 0.003533988, 0.0007651526, 0.00087336, -0.001543649, 0.00195168, -9.815828, 0, 0, 43.17946, 1, 1, 760, 800
 720761580, 0, 0.001672494, 0.0007379727, 0.0008438033, -0.0001151312, -0.0003021089, -9.814358, 0, 0, 43.17971, 1, 1, 999, 999
 720761580, 1, 0.001602656, 0.0007587153, 0.0007361281, 0.0001613024, 0.001152207, -9.814077, 0, 0, 43.17971, 1, 1, 760, 800
 720801564, 0, 0.0001199597, 0.0006848965, 0.0008545991, -0.0003523258, 0.0007935016, -9.814558, 0, 0, 43.17995, 1, 1, 999, 999
 720801564, 1, 9.12715E-06, 0.0009838577, 0.0008330874, 0.001108265, -0.0002261263, -9.815493, 0, 0, 43.17995, 1, 1, 760, 800
 720841548, 0, -0.0003036486, 0.0006609294, 0.0008341414, -0.001393001, 5.611592E-05, -9.812994, 0, 0, 43.18019, 1, 1, 999, 999
 720841548, 1, -0.0002682594, 0.00080283, 0.001000837, 0.0004408897, -1.767263E-05, -9.813002, 0, 0, 43.18019, 1, 1, 760, 800
 720881532, 0, 0.0005901917, 0.002279669, 0.0007587475, 6.68486E-05, -0.00030688, -9.813512, 0, 0, 43.18044, 1, 1, 999, 999
 720881532, 1, 0.0004280222, 0.00235691, 0.0006973883, -0.002383359, 5.387872E-06, -9.812723, 0, 0, 43.18044, 1, 1, 760, 800
 720921516, 0, 0.002045267, 0.004208405, 0.0008344282, 0.0007384535, 4.723037E-05, -9.814595, 0, 0, 43.18068, 1, 1, 999, 999
 720921516, 1, 0.001788069, 0.004569998, 0.0006875286, 0.00281867, 0.0002929397, -9.813797, 0, 0, 43.18068, 1, 1, 760, 800
 720961500, 0, 0.000619017, 0.003532993, 0.0007538861, 0.0009705802, -0.0001482984, -9.811512, 0, 0, 43.18092, 1, 1, 999, 999
 720961500, 1, 0.0006938977, 0.003500091, 0.0008386518, -4.272098E-05, -0.001424989, -9.812168, 0, 0, 43.18092, 1, 1, 760, 800
 721001484, 0, -0.000579753, 0.002352023, 0.000837461, 0.0001385024, 0.0003205545, -9.813125, 0, 0, 43.18117, 1, 1, 999, 999
 721001484, 1, -0.0006389844, 0.002110287, 0.0007139905, -0.002975183, 0.0009691076, -9.812137, 0, 0, 43.18117, 1, 1, 760, 800
 721041468, 0, -0.0002445189, 0.001658234, 0.0007889859, -0.0010033, -0.0004245945, -9.812563, 0, 0, 43.18141, 1, 1, 999, 999
 721041468, 1, -0.0002862406, 0.001655981, 0.0007759923, -0.0001587509, 0.0003527535, -9.811566, 0, 0, 43.18141, 1, 1, 760, 800
 721081452, 0, 0.0001862278, 0.001045578, 0.0007853577, 0.001094406, -0.0008313179, -9.813852, 0, 0, 43.18165, 1, 1, 999, 999
 721081452, 1, 0.0001107962, 0.0008803318, 0.0009644165, 0.0001765272, 0.0008098586, -9.81458, 0, 0, 43.18165, 1, 1, 760, 800
 721121436, 0, 0.003536993, 0.002992129, 0.0007871243, 6.081195E-05, 0.001097015, -9.812815, 0, 0, 43.18189, 1, 1, 999, 999
 721121436, 1, 0.003041421, 0.003188642, 0.0008668628, -0.002162151, -0.0004956808, -9.81439, 0, 0, 43.18189, 1, 1, 760, 800
 721161420, 0, 0.003491465, 0.001173413, 0.0007257743, -0.000776637, -8.950297E-05, -9.813698, 0, 0, 43.18214, 1, 1, 999, 999
 721161420, 1, 0.003496994, 0.0009892563, 0.0007425058, -0.001966069, -0.001144604, -9.812655, 0, 0, 43.18214, 1, 1, 760, 800
 721201404, 0, 0.00442245, 0.000428799, 0.0007760918, 0.0006787606, 0.0004694832, -9.813308, 0, 0, 43.18238, 1, 1, 1000, 1000
 721201404, 1, 0.004273533, 0.0003855148, 0.0007876126, 7.537007E-05, -0.000474718, -9.813202, 0, 0, 43.18238, 1, 1, 760, 800
 721241388, 0, 0.002549509, 0.001786007, 0.0009091796, -6.514289E-05, 0.0003228395, -9.811797, 0, 0, 43.18262, 1, 1, 1000, 1000
 721241388, 1, 0.002445725, 0.001699135, 0.0009934899, -0.0010209, -0.0001800571, -9.813261, 0, 0, 43.18262, 1, 1, 760, 800
 721281372, 0, 0.001844278, 0.0008760353, 0.0009580976, -0.001177184, -0.001386014, -9.813264, 0, 0, 43.18286, 1, 1, 1000, 1000
 721281372, 1, 0.001658379, 0.0006279306, 0.0008556296, -0.0001982898, -0.0004279015, -9.814446, 0, 0, 43.18286, 1, 1, 760, 800
 721321356, 0, 0.001030165, 0.000208233, 0.0009917391, -0.0004980321, -0.001005374, -9.81361, 0, 0, 43.18311, 1, 1, 1000, 1000
 721321356, 1, 0.001188723, 0.0003232608, 0.001020602, 0.0008262424, 0.002751899, -9.814224, 0, 0, 43.1831, 1, 1, 760, 800
 721361340, 0, 0.0003783783, -0.0002938612, 0.001035003, 0.0006278739, -0.0002316037, -9.815433, 0, 0, 43.18335, 1, 1, 1000, 1000
 721361340, 1, 0.0002631258, -0.0002854252, 0.001034736, 0.00092442, -0.0006083918, -9.815882, 0, 0, 43.18334, 1, 1, 760, 800
 721401324, 0, 0.0004488864, 6.446616E-05, 0.001090736, 8.990906E-05, -0.000218552, -9.815239, 0, 0, 43.18359, 1, 1, 1000, 1000
 721401324, 1, 0.0003564067, -2.691713E-05, 0.001203004, -0.001198675, 0.0005552764, -9.816074, 0, 0, 43.18358, 1, 1, 760, 800
 721441308, 0, 0.002136227, 6.26719E-05, 0.001165339, -0.0004059245, -9.020498E-05, -9.814449, 0, 0, 43.18383, 1, 1, 1000, 1000
 721441308, 1, 0.00201134, 8.154113E-05, 0.001220381, 0.002445284, -0.001812118, -9.815224, 0, 0, 43.18383, 1, 1, 760, 800
 721481292, 0, 0.00209651, 8.269089E-05, 0.001196549, -0.001133118, 0.0002716631, -9.814729, 0, 0, 43.18407, 1, 1, 1000, 1000
 721481292, 1, 0.001842274, 7.778373E-05, 0.00111348, -0.002067202, 0.0005068768, -9.817128, 0, 0, 43.18407, 1, 1, 760, 800
 721521276, 0, 0.002034863, 0.0001297828, 0.001188309, 0.0006135815, -0.0006763025, -9.815358, 0, 0, 43.18431, 1, 1, 1000, 1000
 721521276, 1, 0.002099705, 5.382568E-05, 0.001333048, 0.0002499082, 0.0001289716, -9.815713, 0, 0, 43.18431, 1, 1, 760, 800
 721561260, 0, 0.001962004, -0.0005745884, 0.001422875, -3.3726E-05, -0.0007893146, -9.81633, 0, 0, 43.18456, 1, 1, 1000, 1000
 721561260, 1, 0.001763136, -0.0006075785, 0.001138453, -0.0006532729, -0.001304261, -9.817706, 0, 0, 43.18455, 1, 1, 760, 800
 721601244, 0, 0.001953694, -0.0005788785, 0.001381199, 0.0003940629, -0.0002624775, -9.817668, 0, 0, 43.1848, 1, 1, 1000, 1000
 721601244, 1, 0.001454622, -0.0004285866, 0.001426214, 5.433554E-06, -0.0007310027, -9.816096, 0, 0, 43.1848, 1, 1, 760, 800
 721641228, 0, 0.001974185, -0.00109589, 0.001394941, 2.146057E-05, -0.0009384529, -9.816664, 0, 0, 43.18504, 1, 1, 1000, 1000
 721641228, 1, 0.001910809, -0.001136787, 0.00140369, -0.002333026, 0.0008434352, -9.814816, 0, 0, 43.18504, 1, 1, 760, 799
 721681212, 0, 0.002073493, -0.0003914988, 0.001411845, -0.0008183895, 0.0006035304, -9.81544, 0, 0, 43.18528, 1, 1, 1000, 1000
 721681212, 1, 0.001877867, -0.0003669708, 0.001462625, -0.004512886, -0.0006131898, -9.814062, 0, 0, 43.18528, 1, 1, 760, 799
 721721196, 0, 0.002828522, -0.0002646998, 0.001379563, -0.0003860414, -0.0001845058, -9.820375, 0, 0, 43.18553, 1, 1, 1000, 1000
 721721196, 1, 0.002606261, -0.0001711747, 0.001481034, -0.00145259, -2.365743E-05, -9.819023, 0, 0, 43.18552, 1, 1, 760, 799
 721761180, 0, 0.002056857, 0.0004157353, 0.001416182, 0.0006117452, -0.0004521757, -9.817603, 0, 0, 43.18577, 1, 1, 1000, 1000
 721761180, 1, 0.001772054, 0.0004593268, 0.00149866, 1.195512E-05, 0.001556465, -9.819035, 0, 0, 43.18576, 1, 1, 760, 799
 721801164, 0, 0.001000513, -0.001948333, 0.00149264, -7.888157E-05, 0.0007914758, -9.818176, 0, 0, 43.18601, 1, 1, 1000, 1000
 721801164, 1, 0.0007356481, -0.001797547, 0.00135559, -0.0001311325, -0.0001294658, -9.82016, 0, 0, 43.186, 1, 1, 760, 799
 721841148, 0, 0.00103029, -0.0012743, 0.0014943, 0.001252856, -0.002104363, -9.814943, 0, 0, 43.18625, 1, 1, 1000, 1000
 721841148, 1, 0.0008758716, -0.001255422, 0.001510322, -0.001546523, -0.0006579407, -9.816532, 0, 0, 43.18624, 1, 1, 760, 799
 721881132, 0, 6.957432E-05, -0.0008024268, 0.00153788, -0.0005933, -0.0006750699, -9.816262, 0, 0, 43.18649, 1, 1, 1000, 1000
 721881132, 1, 4.473414E-05, -0.0006055785, 0.00154047, 0.001137649, -0.0007686237, -9.816409, 0, 0, 43.18649, 1, 1, 760, 799
 721921116, 0, 0.002041116, 0.0002298316, 0.001690631, 0.0004995837, -0.0002502103, -9.824228, 0, 0, 43.18673, 1, 1, 1000, 1000
 721921116, 1, 0.002084881, 2.83665E-05, 0.001726352, -0.002548492, -0.0009322996, -9.822521, 0, 0, 43.18673, 1, 1, 760, 799
 721961100, 0, 0.001659166, 0.0002068279, 0.001870654, 0.0003326017, 0.0007336547, -9.824117, 0, 0, 43.18697, 1, 1, 1000, 1000
 721961100, 1, 0.001565198, 0.0002756359, 0.001621192, -0.001200446, 0.00120903, -9.826883, 0, 0, 43.18697, 1, 1, 760, 799
 722001084, 0, 0.001719752, 0.0009386154, 0.002186365, -0.0009513354, 0.0009431306, -9.82225, 0, 0, 43.18721, 1, 1, 1000, 1000
 722001084, 1, 0.001626325, 0.001106086, 0.002094737, -0.002094175, 0.0007759893, -9.818913, 0, 0, 43.18721, 1, 1, 760, 799
 722041068, 0, 0.002947926, 0.002901309, 0.00231105, -0.0001863872, -0.0002908357, -9.81418, 0, 0, 43.18745, 1, 1, 1000, 1000
 722041068, 1, 0.003082369, 0.002842798, 0.002257125, 0.001531901, 0.0001956309, -9.81628, 0, 0, 43.18745, 1, 1, 760, 799
 722081052, 0, 0.003426565, 0.003853359, 0.002254436, 0.0003256023, 0.0002530678, -9.819794, 0, 0, 43.1877, 1, 1, 1000, 1000
 722081052, 1, 0.003417264, 0.003747422, 0.002296563, -0.001461962, -0.0009605777, -9.819169, 0, 0, 43.1877, 1, 1, 760, 799
 722121036, 0, 0.002324477, 0.002439125, 0.00220283, -0.0007424987, 0.0004439648, -9.817669, 0, 0, 43.18794, 1, 1, 1000, 1000
 722121036, 1, 0.002536411, 0.002773955, 0.002173569, 0.0008145685, 0.000187943, -9.817282, 0, 0, 43.18794, 1, 1, 760, 799
 722161020, 0, 0.001684461, 0.0007483987, 0.002195147, -0.0008503994, -0.000567785, -9.819494, 0, 0, 43.18818, 1, 1, 1000, 1000
 722161020, 1, 0.001650668, 0.0009157535, 0.002057632, 0.0007072852, 4.00873E-05, -9.815832, 0, 0, 43.18818, 1, 1, 760, 799
 722201004, 0, 5.644686E-05, 0.0004197265, 0.002034643, -0.001381771, -0.0004805558, -9.818169, 0, 0, 43.18842, 1, 1, 999, 999
 722201004, 1, 3.68308E-05, 0.0003741997, 0.002138389, -0.001543624, 0.0009157792, -9.820192, 0, 0, 43.18842, 1, 1, 760, 799
 722240988, 0, -0.000213976, 0.0003007225, 0.001864481, -3.784779E-05, -0.001390122, -9.832632, 0, 0, 43.18866, 1, 1, 999, 999
 722240988, 1, -0.0001632834, 0.000342767, 0.002013507, -0.00196017, 6.157085E-05, -9.832914, 0, 0, 43.18866, 1, 1, 760, 799
 722280972, 0, 0.00226208, 0.002138289, 0.001814025, -0.0007249448, -0.0007250452, -9.834376, 0, 0, 43.1889, 1, 1, 999, 999
 722280972, 1, 0.002146963, 0.002140218, 0.001757169, -0.002169672, -0.001065787, -9.83639, 0, 0, 43.1889, 1, 1, 760, 799
 722320956, 0, 0.001749944, 0.0008663138, 0.001780506, -0.0003539853, -0.0008084274, -9.827833, 0, 0, 43.18914, 1, 1, 999, 999
 722320956, 1, 0.001794183, 0.00074484, 0.001682959, -0.002560931, -0.002675948, -9.826857, 0, 0, 43.18914, 1, 1, 760, 799
 722360940, 0, 0.001691503, 0.0009204175, 0.001794718, -0.0008700123, -0.0007539246, -9.827442, 0, 0, 43.18939, 1, 1, 999, 999
 722360940, 1, 0.001794515, 0.0008538384, 0.001853391, -0.002257867, -0.001462364, -9.825382, 0, 0, 43.18939, 1, 1, 760, 799
 722400924, 0, 0.00147623, 0.002469924, 0.001725336, -0.000344641, -2.627224E-05, -9.811974, 0, 0, 43.18963, 1, 1, 999, 999
 722400924, 1, 0.001723234, 0.002452465, 0.001854463, -0.0003609468, -0.00134234, -9.812125, 0, 0, 43.18963, 1, 1, 760, 799
 722440908, 0, 0.0007696393, 0.003346761, 0.00162156, -0.001454047, 0.0006289331, -9.811275, 0, 0, 43.18987, 1, 1, 999, 999
 722440908, 1, 0.0007933367, 0.003429607, 0.001661033, 0.0002639631, -0.001396392, -9.811548, 0, 0, 43.18987, 1, 1, 760, 799
 722480892, 0, -6.315728E-05, 0.003962855, 0.001554159, -0.001724841, 0.0004955105, -9.812289, 0, 0, 43.19011, 1, 1, 999, 999
 722480892, 1, 2.794245E-05, 0.00393882, 0.001593064, 0.0002578755, -0.0004598674, -9.813625, 0, 0, 43.19011, 1, 1, 760, 799
 722520876, 0, 0.001894657, 0.005372305, 0.001432014, -0.002234131, 0.0007105223, -9.812038, 0, 0, 43.19035, 1, 1, 999, 999
 722520876, 1, 0.001711329, 0.005264282, 0.001260043, -2.67985E-05, -0.002374425, -9.812519, 0, 0, 43.19035, 1, 1, 760, 799
 722560860, 0, 0.002542361, 0.003941347, 0.001324922, -0.001904906, -0.0002584764, -9.815809, 0, 0, 43.19059, 1, 1, 999, 999
 722560860, 1, 0.002424788, 0.004122485, 0.001394891, -0.00068153, 4.400863E-05, -9.8161, 0, 0, 43.19059, 1, 1, 760, 799
 722600844, 0, 0.003785432, 0.002164947, 0.001174231, -0.0008995066, -0.000280977, -9.81891, 0, 0, 43.19083, 1, 1, 999, 999
 722600844, 1, 0.003588928, 0.002306752, 0.001308774, -0.00220569, 0.00108508, -9.818557, 0, 0, 43.19083, 1, 1, 760, 799
 722640828, 0, 0.002807376, 0.0007220603, 0.0008863713, -0.0004034434, -0.0004115464, -9.821117, 0, 0, 43.19107, 1, 1, 999, 999
 722640828, 1, 0.002993034, 0.0006479115, 0.001076102, -0.002254466, 0.0003300716, -9.821559, 0, 0, 43.19107, 1, 1, 760, 799
 722680812, 0, 0.002530428, 0.0007970026, 0.0006328524, -0.0009210756, -0.0002457487, -9.820423, 0, 0, 43.19132, 1, 1, 999, 999
 722680812, 1, 0.002222485, 0.0008574864, 0.0005705208, -0.002550905, -0.001464457, -9.820398, 0, 0, 43.19132, 1, 1, 760, 799
 722720796, 0, 0.0006275816, 0.002510507, 0.0005534278, -0.001723917, -0.001362493, -9.819587, 0, 0, 43.19156, 1, 1, 999, 999
 722720796, 1, 0.0005250896, 0.002464028, 0.0003902947, -0.002640601, -0.00147477, -9.818709, 0, 0, 43.19156, 1, 1, 760, 799
 722760780, 0, 0.001789117, 0.00314106, 0.0007055238, -0.001527204, 0.0003726211, -9.822587, 0, 0, 43.1918, 1, 1, 999, 999
 722760780, 1, 0.001707058, 0.00333695, 0.0005017777, -0.002909363, 0.0001862078, -9.825208, 0, 0, 43.1918, 1, 1, 760, 799
 722800764, 0, 0.001722792, 0.0007949181, 0.0008442373, -2.734647E-05, -0.0002445125, -9.826273, 0, 0, 43.19204, 1, 1, 999, 999
 722800764, 1, 0.001756084, 0.0008584175, 0.000721131, -0.001622114, 0.00194618, -9.825687, 0, 0, 43.19204, 1, 1, 760, 799
 722841581, 0, 0.001703433, 0.000880926, 0.0008137124, -0.001030574, -1.297437E-05, -9.82653, 0, 0, 43.19229, 1, 1, 999, 999
 722841581, 1, 0.001808173, 0.0008846064, 0.0008270238, -0.001218459, 0.0002243615, -9.823895, 0, 0, 43.19229, 1, 1, 760, 799
 722881565, 0, 0.003811869, 0.00538744, 0.0008997639, -0.002704254, 0.0002776376, -9.816741, 0, 0, 43.19253, 1, 1, 999, 999
 722881565, 1, 0.003726779, 0.005287193, 0.0008707203, -0.002819568, 0.001276639, -9.818413, 0, 0, 43.19253, 1, 1, 760, 799
 722921549, 0, 0.004001197, 0.004310741, 0.0008678815, -0.001140956, -0.0007319539, -9.819432, 0, 0, 43.19277, 1, 1, 999, 999
 722921549, 1, 0.003968655, 0.004315792, 0.0008665086, -0.00328031, -0.0007340103, -9.818266, 0, 0, 43.19277, 1, 1, 760, 799
 722961533, 0, 0.001094577, 0.001224192, 0.0009660564, -0.001186183, 0.000479963, -9.819312, 0, 0, 43.19301, 1, 1, 999, 999
 722961533, 1, 0.0009717364, 0.001268889, 0.0009527407, -0.001205734, -0.0009704956, -9.817673, 0, 0, 43.19301, 1, 1, 760, 799
 723001517, 0, 0.001716167, 0.003806835, 0.0009860927, -0.002576172, -0.0003707725, -9.826344, 0, 0, 43.19325, 1, 1, 999, 999
 723001517, 1, 0.001642482, 0.003824463, 0.0009938566, 0.0008335921, -0.0002435205, -9.827976, 0, 0, 43.19325, 1, 1, 760, 799
 723041501, 0, 0.001733847, 0.003680281, 0.000932314, -0.001888623, 2.650991E-05, -9.825462, 0, 0, 43.19349, 1, 1, 999, 999
 723041501, 1, 0.001662466, 0.003731711, 0.0009872273, -0.002275662, 0.001703878, -9.824337, 0, 0, 43.19349, 1, 1, 760, 799
 723081485, 0, 0.001669475, 0.00361677, 0.0009540603, -0.001964698, 0.0001575996, -9.824979, 0, 0, 43.19373, 1, 1, 999, 999
 723081485, 1, 0.001779694, 0.003716578, 0.001033768, -0.001064947, 0.0007487143, -9.827131, 0, 0, 43.19373, 1, 1, 760, 799
 723121469, 0, 0.001695583, 0.00356966, 0.0009067678, -0.001269496, 0.0007018273, -9.823428, 0, 0, 43.19397, 1, 1, 999, 999
 723121469, 1, 0.001665711, 0.003670559, 0.001180915, -0.002093273, 0.001510734, -9.822741, 0, 0, 43.19397, 1, 1, 760, 799
 723161453, 0, 0.001680132, 0.003513372, 0.001013125, -0.002628471, -2.247214E-05, -9.824479, 0, 0, 43.19421, 1, 1, 999, 999
 723161453, 1, 0.00179198, 0.003652495, 0.0009750352, -0.0009888714, -0.003371817, -9.826332, 0, 0, 43.19421, 1, 1, 760, 799
 723201437, 0, 0.001680978, 0.003449097, 0.00102587, -0.002115763, -2.836411E-05, -9.824051, 0, 0, 43.19445, 1, 1, 999, 999
 723201437, 1, 0.001655926, 0.003384065, 0.001130236, -0.0007655806, 0.0006664317, -9.82566, 0, 0, 43.19445, 1, 1, 760, 799
 723241421, 0, 0.001657709, 0.003437868, 0.000980915, -0.002120513, -0.001544174, -9.824018, 0, 0, 43.19469, 1, 1, 999, 999
 723241421, 1, 0.00158803, 0.00340889, 0.001028358, -0.00088598, -0.001189871, -9.82351, 0, 0, 43.19469, 1, 1, 760, 799
 723281405, 0, 0.001697956, 0.003458982, 0.001004556, -0.001582881, -0.0009940269, -9.824253, 0, 0, 43.19494, 1, 1, 999, 999
 723281405, 1, 0.001667807, 0.003360155, 0.001031614, -0.001829456, -0.000333914, -9.824431, 0, 0, 43.19494, 1, 1, 760, 799
 723321389, 0, 0.00168397, 0.003325216, 0.0009867168, -0.001071885, -0.0004029731, -9.821814, 0, 0, 43.19518, 1, 1, 999, 999
 723321389, 1, 0.001599458, 0.003380756, 0.001074251, -0.001186047, -0.0009892614, -9.823553, 0, 0, 43.19518, 1, 1, 760, 799
 723361373, 0, 0.001708505, 0.003291502, 0.000990951, -0.001253019, -0.00102749, -9.823675, 0, 0, 43.19542, 1, 1, 999, 999
 723361373, 1, 0.001651473, 0.003274591, 0.001124246, -0.001237042, -0.002405272, -9.821067, 0, 0, 43.19541, 1, 1, 760, 799
 723401357, 0, 0.001734714, -0.001674683, 0.00102984, -0.001522085, 0.0006982243, -9.823967, 0, 0, 43.19566, 1, 1, 999, 999
 723401357, 1, 0.001858351, -0.001687428, 0.001047221, -0.003468094, 0.000398641, -9.822971, 0, 0, 43.19565, 1, 1, 760, 799
 723441341, 0, 0.001696864, -0.001568945, 0.001050539, -0.00178319, -4.501491E-05, -9.823831, 0, 0, 43.1959, 1, 1, 999, 999
 723441341, 1, 0.001726512, -0.001558511, 0.0009527826, -7.237314E-05, -0.001152443, -9.822778, 0, 0, 43.19589, 1, 1, 760, 799
 723481325, 0, 0.001764369, -0.001493907, 0.001036557, -0.001783434, -0.000970609, -9.822391, 0, 0, 43.19614, 1, 1, 999, 999
 723481325, 1, 0.001540293, -0.001612606, 0.001172013, -0.002058659, -0.0009313686, -9.822324, 0, 0, 43.19613, 1, 1, 760, 799
 723521309, 0, 0.001767883, -0.001339448, 0.001014582, -0.002505073, -0.0001626133, -9.821999, 0, 0, 43.19638, 1, 1, 999, 999
 723521309, 1, 0.001847613, -0.001329852, 0.0009118486, -0.0007276125, -0.003235948, -9.82303, 0, 0, 43.19637, 1, 1, 760, 799
 723561293, 0, 0.001708903, -0.001322198, 0.001058042, -0.002370094, -0.0009129664, -9.822145, 0, 0, 43.19662, 1, 1, 999, 999
 723561293, 1, 0.001806449, -0.001224868, 0.001001144, -0.001827181, -0.0008704102, -9.821131, 0, 0, 43.19661, 1, 1, 760, 799
 723601277, 0, 0.001369928, -0.001210465, 0.001063334, -0.001709278, -0.0002019274, -9.824184, 0, 0, 43.19686, 1, 1, 999, 999
 723601277, 1, 0.0015948, -0.001412065, 0.001040084, 5.072626E-06, -0.002591609, -9.825161, 0, 0, 43.19685, 1, 1, 760, 799
 723641261, 0, 0.002764049, -0.00109973, 0.001315329, -0.001508581, -0.0003335977, -9.826746, 0, 0, 43.1971, 1, 1, 999, 999
 723641261, 1, 0.002913501, -0.00103391, 0.001261453, -0.003995941, -0.0002886982, -9.827816, 0, 0, 43.1971, 1, 1, 760, 799
 723681245, 0, 0.002640791, -0.001110307, 0.001429956, -0.001597702, -0.0002217927, -9.826593, 0, 0, 43.19734, 1, 1, 999, 999
 723681245, 1, 0.002561331, -0.0008646789, 0.0015961, -0.000624654, -0.001574583, -9.824781, 0, 0, 43.19734, 1, 1, 760, 799
 723721229, 0, 0.003425501, 0.00186129, 0.001604095, -0.002620771, 0.0002850666, -9.831717, 0, 0, 43.19758, 1, 1, 999, 999
 723721229, 1, 0.003205209, 0.00193163, 0.001476986, -0.002721219, -2.293372E-05, -9.832142, 0, 0, 43.19758, 1, 1, 760, 799
 723761213, 0, 0.002720406, 0.001793474, 0.001657999, -0.00145878, -0.0002300394, -9.824732, 0, 0, 43.19782, 1, 1, 999, 999
 723761213, 1, 0.002514604, 0.001821518, 0.001599932, -0.001846471, -0.0009117001, -9.824736, 0, 0, 43.19781, 1, 1, 760, 799
 723801197, 0, 0.000829445, 0.002042943, 0.001816406, -0.001304348, 2.634986E-05, -9.822504, 0, 0, 43.19806, 1, 1, 999, 999
 723801197, 1, 0.0008641384, 0.002140972, 0.001785264, -0.002345793, -0.001193359, -9.820718, 0, 0, 43.19806, 1, 1, 760, 799
 723841181, 0, 0.0001435705, 0.004216338, 0.002021202, -0.001740925, -0.0004976765, -9.8299, 0, 0, 43.1983, 1, 1, 999, 999
 723841181, 1, 0.0001373738, 0.004227476, 0.001971531, -0.003148621, -0.001058545, -9.830143, 0, 0, 43.1983, 1, 1, 760, 799
 723881165, 0, 0.001771841, 0.003865255, 0.002187761, -0.001821544, -0.0004078518, -9.824355, 0, 0, 43.19854, 1, 1, 999, 999
 723881165, 1, 0.001682023, 0.003785031, 0.002312117, -0.002760893, -0.001306464, -9.824223, 0, 0, 43.19854, 1, 1, 760, 799
 723921149, 0, 0.001863991, 0.003832267, 0.002374712, -0.001618829, -0.0003848482, -9.826389, 0, 0, 43.19878, 1, 1, 999, 999
 723921149, 1, 0.001884979, 0.004001308, 0.002420837, -0.0006059722, -0.0005677525, -9.824137, 0, 0, 43.19878, 1, 1, 760, 799
 723961133, 0, 9.269106E-05, -4.830038E-05, 0.002609271, -0.002567071, -0.0003197279, -9.829935, 0, 0, 43.19902, 1, 1, 999, 999
 723961133, 1, 0.0003474091, 6.208372E-05, 0.002572154, 7.000629E-05, 0.002014157, -9.830826, 0, 0, 43.19902, 1, 1, 760, 799
 724001117, 0, 0.000567663, 0.001219022, 0.002527008, -0.000899158, 0.0002986984, -9.827391, 0, 0, 43.19926, 1, 1, 999, 999
 724001117, 1, 0.0006384469, 0.001295696, 0.002566437, -0.0009781802, -0.002438365, -9.825439, 0, 0, 43.19926, 1, 1, 760, 799
 724041101, 0, -0.0001279514, 0.001023313, 0.002278039, -0.002380393, -0.0009202996, -9.822936, 0, 0, 43.1995, 1, 1, 999, 999
 724041101, 1, -0.0002785458, 0.00112157, 0.002131343, -0.003234451, -0.00230068, -9.822166, 0, 0, 43.1995, 1, 1, 760, 799
 724081085, 0, 0.002955665, 0.004208843, 0.002109845, -0.003078727, -0.001012241, -9.828424, 0, 0, 43.19974, 1, 1, 999, 999
 724081085, 1, 0.002886963, 0.004409738, 0.002037508, -0.003482643, -0.0008173842, -9.830773, 0, 0, 43.19974, 1, 1, 760, 799
 724121069, 0, 0.003802372, 0.005217666, 0.001773399, -0.001640259, -0.000838047, -9.82756, 0, 0, 43.19998, 1, 1, 999, 999
 724121069, 1, 0.003634697, 0.005068108, 0.001753461, -0.003410151, 6.850233E-05, -9.825683, 0, 0, 43.19998, 1, 1, 760, 799
 724161053, 0, 0.003833749, 0.004483138, 0.00170446, -0.002739219, -0.0001813461, -9.829934, 0, 0, 43.20022, 1, 1, 999, 999
 724161053, 1, 0.004006266, 0.004486329, 0.001703206, -0.002016292, 0.0005700986, -9.829633, 0, 0, 43.20022, 1, 1, 760, 799
 724201037, 0, 0.002626754, 0.003333606, 0.001569768, -0.001675899, 1.944791E-05, -9.825517, 0, 0, 43.20046, 1, 1, 1000, 1000
 724201037, 1, 0.002494786, 0.003518105, 0.001576822, -0.0006143135, 0.001012716, -9.82636, 0, 0, 43.20046, 1, 1, 760, 799
 724241021, 0, 0.0004179516, 0.001969894, 0.001455878, -0.002268961, -0.000670933, -9.822039, 0, 0, 43.2007, 1, 1, 1000, 1000
 724241021, 1, 0.0005956346, 0.002126245, 0.00154009, -0.002005273, 9.883733E-05, -9.821381, 0, 0, 43.2007, 1, 1, 760, 799
 724281005, 0, 0.001066572, 0.002276064, 0.001329656, -0.002091205, -0.0003966142, -9.823036, 0, 0, 43.20094, 1, 1, 1000, 1000
 724281005, 1, 0.001333087, 0.002366656, 0.001191623, -0.001807329, -0.0009430183, -9.824146, 0, 0, 43.20094, 1, 1, 760, 799
 724320989, 0, 0.002948034, 0.002129721, 0.001127778, -0.002459986, -0.001688142, -9.823349, 0, 0, 43.20118, 1, 1, 1000, 1000
 724320989, 1, 0.002855853, 0.002262589, 0.001065501, -0.0032625, 0.0004886238, -9.826024, 0, 0, 43.20118, 1, 1, 760, 799
 724360973, 0, 0.002842468, -1.937979E-05, 0.0008038983, -0.002136283, -8.267679E-05, -9.824259, 0, 0, 43.20142, 1, 1, 1000, 1000
 724360973, 1, 0.002975375, -9.64566E-05, 0.0007126232, -0.002429165, -0.002147084, -9.821494, 0, 0, 43.20142, 1, 1, 760, 799
 724400957, 0, 0.002762471, 0.001768548, 0.0005208505, -0.002440336, -0.001397545, -9.818802, 0, 0, 43.20166, 1, 1, 1000, 1000
 724400957, 1, 0.002704934, 0.001818838, 0.0004933351, -0.002182252, -0.0004329482, -9.818211, 0, 0, 43.20166, 1, 1, 760, 799
 724440941, 0, 0.002733244, 0.0006103286, 0.0005798863, -0.00163655, 0.0001383663, -9.816547, 0, 0, 43.2019, 1, 1, 1000, 1000
 724440941, 1, 0.002856943, 0.0005004953, 0.0004537774, -0.001822765, -0.0006467687, -9.816561, 0, 0, 43.2019, 1, 1, 760, 799
 724480925, 0, 0.002782214, 0.0006583493, 0.0005827929, -0.001383588, -0.0009763588, -9.815928, 0, 0, 43.20214, 1, 1, 1000, 1000
 724480925, 1, 0.002574432, 0.0007356759, 0.0006706945, -0.005246544, -0.0003167046, -9.816133, 0, 0, 43.20214, 1, 1, 760, 799
 724520909, 0, 0.002720931, 0.0007229029, 0.0005610949, -0.00227251, -0.0001411838, -9.816875, 0, 0, 43.20238, 1, 1, 1000, 1000
 724520909, 1, 0.002801599, 0.0007935741, 0.0004069312, -0.0005692826, -0.001446378, -9.817488, 0, 0, 43.20238, 1, 1, 760, 799
 724560893, 0, 0.002711172, 0.0007116904, 0.0005668176, -0.002427474, -1.391306E-05, -9.815716, 0, 0, 43.20262, 1, 1, 1000, 1000
 724560893, 1, 0.002668947, 0.0007998401, 0.0004498959, -0.001123763, 0.0003778922, -9.81666, 0, 0, 43.20262, 1, 1, 760, 799
 724600877, 0, 0.002677466, 0.0007754839, 0.0005699641, -0.001457521, 0.0007101109, -9.815962, 0, 0, 43.20285, 1, 1, 1000, 1000
 724600877, 1, 0.002712981, 0.0009030153, 0.000620556, -0.00049969, 0.000724568, -9.814227, 0, 0, 43.20285, 1, 1, 760, 799
 724640861, 0, -0.001417454, 0.000816524, 0.0006825346, -0.001845113, 0.0009128688, -9.816105, 0, 0, 43.20309, 1, 1, 1000, 1000
 724640861, 1, -0.001617808, 0.0008417999, 0.0007549109, -0.002461195, 0.003803449, -9.816563, 0, 0, 43.20309, 1, 1, 760, 799
 724680845, 0, -0.001191824, 0.0008117305, 0.0006708608, -0.002639228, 0.0009541318, -9.814817, 0, 0, 43.20333, 1, 1, 1000, 1000
 724680845, 1, -0.001296242, 0.0007840917, 0.0005998552, -0.001533529, -0.001097577, -9.813228, 0, 0, 43.20333, 1, 1, 760, 799
 724720829, 0, -0.001135031, 0.0008526639, 0.0007161045, -0.002904065, 0.000200593, -9.815667, 0, 0, 43.20358, 1, 1, 1000, 1000
 724720829, 1, -0.0009886485, 0.0008167107, 0.000813539, -0.002556993, -0.001975793, -9.814645, 0, 0, 43.20358, 1, 1, 760, 799
 724760813, 0, -0.001057373, 0.0008501582, 0.0006132021, -0.001742131, -0.0005361029, -9.814672, 0, 0, 43.20382, 1, 1, 1000, 1000
 724760813, 1, -0.00110548, 0.0008667766, 0.0005591593, -0.001305299, -7.466626E-05, -9.814102, 0, 0, 43.20382, 1, 1, 760, 799
 724800797, 0, -0.0009012338, 0.0008815942, 0.0006702436, -0.002358113, 0.0004170259, -9.815804, 0, 0, 43.20405, 1, 1, 1000, 1000
 724800797, 1, -0.0009315007, 0.0009404689, 0.0007580532, -0.002550238, 0.0005658021, -9.818182, 0, 0, 43.20405, 1, 1, 760, 799
 724840781, 0, -0.0007946394, 0.001054402, 0.0006858764, -0.003127196, 0.0003212909, -9.815722, 0, 0, 43.20429, 1, 1, 1000, 1000
 724840781, 1, -0.0008416958, 0.001046516, 0.0006496111, -0.001338695, -0.002816548, -9.814331, 0, 0, 43.20429, 1, 1, 760, 799
