Time,IMU_I,IMU_GyrX,IMU_GyrY,IMU_GyrZ,IMU_AccX,IMU_AccY,IMU_AccZ,IMU_EG,IMU_EA,IMU_T,IMU_GH,IMU_AH,IMU_GHz,IMU_AHz
 74893364, 0, 0.001016104, 0.001037388, 0.00111029, -0.001970661, -0.0009954472, -9.817921, 0, 0, 29.32779, 1, 1, 1000, 1000
 74893364, 1, 0.00113509, 0.001194789, 0.001071268, 0.0002110713, -0.002470789, -9.817842, 0, 0, 29.32779, 1, 1, 760, 800
 74933348, 0, 0.001091008, 0.001061215, 0.001090188, -0.0007669421, -0.0009466363, -9.817925, 0, 0, 29.32988, 1, 1, 1000, 1000
 74933348, 1, 0.001260448, 0.001220977, 0.001050037, -0.001006494, -0.0002525469, -9.817127, 0, 0, 29.32988, 1, 1, 760, 800
 74973332, 0, 0.001065835, 0.001077033, 0.001089963, -0.0005585818, -0.0007884878, -9.816838, 0, 0, 29.33197, 1, 1, 1000, 1000
 74973332, 1, 0.001096642, 0.00112903, 0.001016594, -0.001514035, 0.001238045, -9.816677, 0, 0, 29.33197, 1, 1, 760, 800
 75013316, 0, 0.001076584, 0.00106194, 0.001079339, -0.001641361, -0.0002831453, -9.817198, 0, 0, 29.33406, 1, 1, 1000, 1000
 75013316, 1, 0.001063046, 0.000999695, 0.0009577581, -0.001413227, -5.516618E-05, -9.819034, 0, 0, 29.33406, 1, 1, 760, 800
 75053300, 0, 0.001093018, 0.001056017, 0.001074318, -0.001037697, -0.001607792, -9.817126, 0, 0, 29.33615, 1, 1, 1000, 1000
 75053300, 1, 0.001141847, 0.001230504, 0.001166948, -0.0003556146, 0.0007284719, -9.817072, 0, 0, 29.33615, 1, 1, 760, 800
 75093284, 0, 0.001094565, 0.00105237, 0.001092516, -0.0003208923, -0.001559254, -9.817749, 0, 0, 29.33824, 1, 1, 1000, 1000
 75093284, 1, 0.0009955878, 0.001004661, 0.001335165, -0.002207418, 0.0007511005, -9.817593, 0, 0, 29.33824, 1, 1, 760, 800
 75133268, 0, 0.001086027, 0.001081242, 0.001042456, -0.001558447, -0.001025843, -9.817919, 0, 0, 29.34032, 1, 1, 1000, 1000
 75133268, 1, 0.0009266397, 0.001203811, 0.00106345, -0.0009501584, -0.002449344, -9.817707, 0, 0, 29.34032, 1, 1, 760, 800
 75174085, 0, 0.001020856, 0.00105102, 0.00116713, -1.987547E-05, -0.0005419187, -9.816957, 0, 0, 29.34241, 1, 1, 1000, 1000
 75174085, 1, 0.001126799, 0.001310623, 0.001106597, -0.0009590563, -9.244234E-05, -9.815166, 0, 0, 29.34246, 1, 1, 760, 800
 75214069, 0, 0.001154682, 0.001060699, 0.001069157, -0.001151123, -0.0005967524, -9.818085, 0, 0, 29.3445, 1, 1, 1000, 1000
 75214069, 1, 0.0009741837, 0.001064441, 0.001032413, -0.0004050323, -0.0001039899, -9.817268, 0, 0, 29.34455, 1, 1, 760, 800
 75254053, 0, 0.001154462, 0.001039344, 0.001008562, -0.0004958851, -0.0004703857, -9.815434, 0, 0, 29.34659, 1, 1, 1000, 1000
 75254053, 1, 0.0008923817, 0.001220238, 0.001145383, -0.0007526694, -0.001080559, -9.81775, 0, 0, 29.34664, 1, 1, 760, 800
 75294037, 0, 0.001013934, 0.0009981575, 0.00107612, -0.001414086, -0.0009533124, -9.817181, 0, 0, 29.34867, 1, 1, 1000, 1000
 75294037, 1, 0.001098415, 0.001119161, 0.000807647, -0.003453732, -0.001977911, -9.818013, 0, 0, 29.34873, 1, 1, 760, 800
 75334021, 0, 0.001007267, 0.0009809769, 0.001085806, -0.001133127, -0.001079341, -9.81636, 0, 0, 29.35076, 1, 1, 1000, 1000
 75334021, 1, 0.0009743463, 0.0008823122, 0.001317361, -0.001835229, 0.000705561, -9.818212, 0, 0, 29.35081, 1, 1, 760, 800
 75374005, 0, 0.0009832088, 0.001093568, 0.001074805, -0.0007129744, -0.0003600561, -9.818369, 0, 0, 29.35285, 1, 1, 1000, 1000
 75374005, 1, 0.0009252845, 0.001051935, 0.001089885, 0.001902932, -0.0004805702, -9.816277, 0, 0, 29.3529, 1, 1, 760, 800
 75413989, 0, 0.001090313, 0.001064012, 0.001095251, -0.001457522, -0.0003644631, -9.817141, 0, 0, 29.35493, 1, 1, 1000, 1000
 75413989, 1, 0.001046937, 0.00109953, 0.001158999, -0.0007128346, -0.001316248, -9.817369, 0, 0, 29.35493, 1, 1, 760, 800
 75453973, 0, 0.001105793, 0.001091019, 0.00111844, -0.0009725619, -0.001286389, -9.817291, 0, 0, 29.35702, 1, 1, 1000, 1000
 75453973, 1, 0.001170962, 0.0007479978, 0.001099559, -0.001260154, -0.002272789, -9.817087, 0, 0, 29.35702, 1, 1, 760, 800
 75493957, 0, 0.001096081, 0.001081885, 0.001079144, -0.001734062, -0.0009341566, -9.817508, 0, 0, 29.35911, 1, 1, 1000, 1000
 75493957, 1, 0.0009597553, 0.001219879, 0.001023078, -0.00029467, -0.0002513667, -9.816748, 0, 0, 29.35911, 1, 1, 760, 800
 75533941, 0, 0.001020507, 0.001060789, 0.001094067, -0.0002989983, -0.001536213, -9.817555, 0, 0, 29.36119, 1, 1, 1000, 1000
 75533941, 1, 0.001093536, 0.001058568, 0.0009971887, -0.00157581, -0.0005744829, -9.816596, 0, 0, 29.36119, 1, 1, 760, 800
 75573925, 0, 0.001063926, 0.001084489, 0.001085183, -7.937226E-05, -0.0004792993, -9.817062, 0, 0, 29.36328, 1, 1, 1000, 1000
 75573925, 1, 0.001345578, 0.001325948, 0.001195046, -0.0002782154, 0.001902707, -9.817923, 0, 0, 29.36328, 1, 1, 760, 800
 75613909, 0, 0.001111939, 0.00108295, 0.001021271, -0.0009349002, -0.001503144, -9.817541, 0, 0, 29.36536, 1, 1, 1000, 1000
 75613909, 1, 0.00094687, 0.001001734, 0.000984517, -0.001255237, -0.0005675456, -9.818107, 0, 0, 29.36536, 1, 1, 760, 800
 75653893, 0, 0.001116777, 0.001094587, 0.001067756, -0.001676598, -0.000516473, -9.816702, 0, 0, 29.36744, 1, 1, 1000, 1000
 75653893, 1, 0.001011804, 0.001072786, 0.0009648637, -0.0005115991, -0.00176417, -9.816202, 0, 0, 29.36744, 1, 1, 760, 800
 75693877, 0, 0.001096809, 0.001111756, 0.001095129, -0.001727245, -0.00155859, -9.817015, 0, 0, 29.36953, 1, 1, 1000, 1000
 75693877, 1, 0.0009438423, 0.001038091, 0.000992056, 1.381361E-05, 0.0007878629, -9.81862, 0, 0, 29.36953, 1, 1, 760, 800
 75733861, 0, 0.001057666, 0.001062324, 0.001090681, -0.0003568405, -0.0008820833, -9.817635, 0, 0, 29.37161, 1, 1, 1000, 1000
 75733861, 1, 0.001061298, 0.0009799141, 0.001141628, -0.0002946273, -0.0008704109, -9.817537, 0, 0, 29.37161, 1, 1, 760, 800
 75773845, 0, 0.001122305, 0.00107877, 0.001117214, -0.000852816, -0.0009083759, -9.817366, 0, 0, 29.3737, 1, 1, 1000, 1000
 75773845, 1, 0.001129865, 0.001362809, 0.001025217, -0.0003364678, -0.0003535165, -9.817097, 0, 0, 29.3737, 1, 1, 760, 800
 75813829, 0, 0.001023907, 0.001082708, 0.001109008, -0.0003067382, -0.0005921368, -9.817184, 0, 0, 29.37578, 1, 1, 1000, 1000
 75813829, 1, 0.00105854, 0.001077498, 0.001079563, 0.0001199068, -0.001026012, -9.818965, 0, 0, 29.37573, 1, 1, 760, 800
 75853813, 0, 0.001001153, 0.001083774, 0.00108607, -0.0008600387, -0.002026618, -9.81668, 0, 0, 29.37786, 1, 1, 1000, 1000
 75853813, 1, 0.0009777752, 0.001000696, 0.001052962, -0.0009658919, -0.000482625, -9.818897, 0, 0, 29.37781, 1, 1, 760, 800
 75893797, 0, 0.001113942, 0.001004607, 0.001140545, -0.00023446, -0.002657148, -9.81802, 0, 0, 29.37995, 1, 1, 1000, 1000
 75893797, 1, 0.001047864, 0.001027043, 0.0007802066, -0.001070389, -0.002387078, -9.818309, 0, 0, 29.37989, 1, 1, 760, 800
 75933781, 0, 0.001027101, 0.001042419, 0.001160871, -0.000911549, -0.001499481, -9.817945, 0, 0, 29.38203, 1, 1, 1000, 1000
 75933781, 1, 0.001117834, 0.001099326, 0.001162774, 0.002415962, -0.002451263, -9.816084, 0, 0, 29.38198, 1, 1, 760, 800
 75973765, 0, 0.00106735, 0.001107713, 0.00116226, -0.0008137402, -0.002107228, -9.817353, 0, 0, 29.38411, 1, 1, 1000, 1000
 75973765, 1, 0.0009906091, 0.00116763, 0.0009677801, 6.371883E-05, 0.002463152, -9.81766, 0, 0, 29.38406, 1, 1, 760, 800
 76013749, 0, 0.001153337, 0.001017172, 0.001082356, -0.001143153, -0.001439757, -9.817414, 0, 0, 29.38619, 1, 1, 1000, 1000
 76013749, 1, 0.0007689547, 0.001209152, 0.0009512411, 0.00105216, -0.001882935, -9.814895, 0, 0, 29.38614, 1, 1, 760, 800
 76053733, 0, 0.001066981, 0.001071903, 0.001069899, -0.001716537, -0.001206646, -9.817113, 0, 0, 29.38828, 1, 1, 1000, 1000
 76053733, 1, 0.001092163, 0.001038982, 0.0009274502, -0.003201376, -0.002863669, -9.817073, 0, 0, 29.38822, 1, 1, 760, 800
 76093717, 0, 0.001128641, 0.001103549, 0.001095365, -0.0004077689, -0.001207266, -9.817747, 0, 0, 29.39036, 1, 1, 1000, 1000
 76093717, 1, 0.00095533, 0.001221408, 0.0009389648, -0.0002333054, -0.00135606, -9.817472, 0, 0, 29.3903, 1, 1, 760, 800
 76133701, 0, 0.001162561, 0.001016738, 0.001135267, -0.0008122539, -0.0003928539, -9.817474, 0, 0, 29.39244, 1, 1, 1000, 1000
 76133701, 1, 0.001224726, 0.0008863711, 0.001121962, -0.001748039, -0.00346393, -9.818108, 0, 0, 29.39239, 1, 1, 760, 800
 76173685, 0, 0.001070041, 0.001089681, 0.001026641, -0.00210592, -0.001551948, -9.819543, 0, 0, 29.39452, 1, 1, 1000, 1000
 76173685, 1, 0.0009221315, 0.0009458394, 0.00118494, 0.001287968, 0.0006778578, -9.817947, 0, 0, 29.39447, 1, 1, 760, 800
 76213669, 0, 0.001022266, 0.00107518, 0.001200061, -0.0001218307, 0.0006379193, -9.817295, 0, 0, 29.3966, 1, 1, 1000, 1000
 76213669, 1, 0.0009588711, 0.001001285, 0.001240786, -0.001526505, -0.002112585, -9.81631, 0, 0, 29.39655, 1, 1, 760, 800
 76253653, 0, 0.001020945, 0.001107981, 0.001115568, -0.0002454551, -0.001410642, -9.818197, 0, 0, 29.39868, 1, 1, 1000, 1000
 76253653, 1, 0.0008627631, 0.001031588, 0.001054218, 0.001267635, -0.001133031, -9.817294, 0, 0, 29.39863, 1, 1, 760, 800
 76293637, 0, 0.001124419, 0.001125744, 0.001070781, -0.0002630767, -0.001063837, -9.816711, 0, 0, 29.40076, 1, 1, 1000, 1000
 76293637, 1, 0.0009357306, 0.0008396299, 0.001015167, -0.0002761615, -0.00173708, -9.818408, 0, 0, 29.40071, 1, 1, 760, 800
 76333621, 0, 0.001055386, 0.001167725, 0.001099446, -0.001281966, -0.001491761, -9.81761, 0, 0, 29.40284, 1, 1, 1000, 1000
 76333621, 1, 0.00105936, 0.001147419, 0.001220384, -0.001457584, -0.0006437924, -9.816972, 0, 0, 29.40279, 1, 1, 760, 800
 76373605, 0, 0.001123686, 0.001030538, 0.001071716, -0.0006184313, -0.000753007, -9.818205, 0, 0, 29.40492, 1, 1, 1000, 1000
 76373605, 1, 0.001180298, 0.001131785, 0.0009180909, -0.0005440069, -0.003330991, -9.818406, 0, 0, 29.40487, 1, 1, 760, 800
 76413589, 0, 0.001128044, 0.001055305, 0.001051033, -0.001066296, -0.002410231, -9.817864, 0, 0, 29.407, 1, 1, 1000, 1000
 76413589, 1, 0.001074535, 0.001056647, 0.001301262, -0.001074876, -0.0004653987, -9.817393, 0, 0, 29.40695, 1, 1, 760, 800
 76453573, 0, 0.001075892, 0.001127222, 0.001031271, -0.0004207049, -0.0005207875, -9.816837, 0, 0, 29.40908, 1, 1, 1000, 1000
 76453573, 1, 0.001167659, 0.0009744327, 0.001027033, 0.0001412022, -0.0002630497, -9.82044, 0, 0, 29.40903, 1, 1, 760, 800
 76493557, 0, 0.001078513, 0.001073546, 0.001059777, -0.001072648, -0.0006687198, -9.816637, 0, 0, 29.41116, 1, 1, 1000, 1000
 76493557, 1, 0.00126366, 0.001257277, 0.001113254, -0.00217134, -0.004052682, -9.818129, 0, 0, 29.4111, 1, 1, 760, 800
 76533541, 0, 0.001089286, 0.00113249, 0.001129304, -0.000657462, -0.001723072, -9.817346, 0, 0, 29.41323, 1, 1, 1000, 1000
 76533541, 1, 0.001166447, 0.001192666, 0.001122284, -0.001106721, -0.001578513, -9.817336, 0, 0, 29.41318, 1, 1, 760, 800
 76573525, 0, 0.001079323, 0.00105852, 0.001086353, -0.0009288564, -0.001007422, -9.816726, 0, 0, 29.41531, 1, 1, 1000, 1000
 76573525, 1, 0.001175785, 0.001051059, 0.0008205738, -0.002123838, -0.0009118282, -9.819122, 0, 0, 29.41526, 1, 1, 760, 800
 76613509, 0, 0.001174282, 0.001131749, 0.001044163, -0.0004776643, -0.0003790334, -9.816873, 0, 0, 29.41739, 1, 1, 1000, 1000
 76613509, 1, 0.001126641, 0.001210359, 0.001138561, -0.001736632, -0.001452515, -9.814823, 0, 0, 29.41734, 1, 1, 760, 800
 76653493, 0, 0.001047942, 0.001036813, 0.001081748, -0.0003728846, -0.0008033413, -9.817444, 0, 0, 29.41947, 1, 1, 1000, 1000
 76653493, 1, 0.00118341, 0.001335484, 0.001140261, -0.002037141, -0.00257452, -9.813727, 0, 0, 29.41941, 1, 1, 760, 800
 76693477, 0, 0.001120055, 0.001117326, 0.001029055, 0.0004138669, -0.00184888, -9.817925, 0, 0, 29.42154, 1, 1, 1000, 1000
 76693477, 1, 0.0009465661, 0.001157502, 0.0009942555, 0.0006300024, 0.001679147, -9.819123, 0, 0, 29.42149, 1, 1, 760, 800
 76733461, 0, 0.001089433, 0.001153417, 0.001056107, -0.002203741, -0.001114043, -9.818104, 0, 0, 29.42362, 1, 1, 1000, 1000
 76733461, 1, 0.001244635, 0.001177104, 0.001086767, -0.0009663655, -0.001594763, -9.816637, 0, 0, 29.42362, 1, 1, 760, 800
 76773445, 0, 0.001119045, 0.001073923, 0.001051057, -0.001464891, -0.001124446, -9.817371, 0, 0, 29.4257, 1, 1, 1000, 1000
 76773445, 1, 0.0008758364, 0.001299629, 0.001076568, -0.002457671, -0.0001338859, -9.816605, 0, 0, 29.4257, 1, 1, 760, 800
 76813429, 0, 0.00106489, 0.001107707, 0.001127769, 0.0001101544, -0.0009665781, -9.817986, 0, 0, 29.42777, 1, 1, 1000, 1000
 76813429, 1, 0.001065227, 0.0007214112, 0.001297432, 0.0005753115, -0.000640128, -9.813723, 0, 0, 29.42777, 1, 1, 760, 800
 76853413, 0, 0.001088957, 0.001061227, 0.001105611, 0.000716962, -0.002664933, -9.817183, 0, 0, 29.42985, 1, 1, 1000, 1000
 76853413, 1, 0.0007244642, 0.001318594, 0.0009447477, -0.0003637865, 0.0006020343, -9.81848, 0, 0, 29.42985, 1, 1, 760, 800
 76893397, 0, 0.00104693, 0.001075374, 0.001152386, -0.0006533192, -0.0005034642, -9.8165, 0, 0, 29.43193, 1, 1, 1000, 1000
 76893397, 1, 0.001010648, 0.001044714, 0.001106152, -0.0004092115, -0.001514444, -9.81878, 0, 0, 29.43193, 1, 1, 760, 800
 76933381, 0, 0.001111406, 0.001047573, 0.001121369, -0.001309456, 0.0003865553, -9.818387, 0, 0, 29.434, 1, 1, 1000, 1000
 76933381, 1, 0.001117848, 0.001246499, 0.001113307, -0.00152308, -0.002695409, -9.818585, 0, 0, 29.434, 1, 1, 760, 800
 76973365, 0, 0.001082893, 0.001086381, 0.001010864, -0.0007552839, -0.002092824, -9.817074, 0, 0, 29.43608, 1, 1, 1000, 1000
 76973365, 1, 0.0009195304, 0.00104297, 0.001041707, -0.001053003, -0.002053684, -9.818087, 0, 0, 29.43608, 1, 1, 760, 800
 77013349, 0, 0.001089261, 0.00104085, 0.001038945, -0.0003032983, -0.001079888, -9.817202, 0, 0, 29.43815, 1, 1, 1000, 1000
 77013349, 1, 0.001197819, 0.001225075, 0.001146931, 0.001206287, -0.002496306, -9.819476, 0, 0, 29.43815, 1, 1, 760, 800
 77053333, 0, 0.001105582, 0.001152648, 0.0011074, -0.001019285, -0.001079375, -9.816708, 0, 0, 29.44023, 1, 1, 1000, 1000
 77053333, 1, 0.0009588456, 0.0008387838, 0.001162636, -0.001808486, -0.002077602, -9.815735, 0, 0, 29.44023, 1, 1, 760, 800
 77093317, 0, 0.001157658, 0.00102117, 0.001094635, -0.001016955, -0.001837256, -9.817978, 0, 0, 29.4423, 1, 1, 1000, 1000
 77093317, 1, 0.001119093, 0.0009754577, 0.0009038857, -0.001079376, -0.00184432, -9.819111, 0, 0, 29.4423, 1, 1, 760, 800
 77133301, 0, 0.001046773, 0.001111981, 0.001101216, -0.001496947, -0.001444286, -9.817734, 0, 0, 29.44438, 1, 1, 1000, 1000
 77133301, 1, 0.001432932, 0.001130984, 0.001128649, 0.0003166789, -4.285046E-05, -9.818729, 0, 0, 29.44438, 1, 1, 760, 800
 77173285, 0, 0.001072959, 0.001148938, 0.001173485, -0.0004234581, -0.001310818, -9.817276, 0, 0, 29.44645, 1, 1, 1000, 1000
 77173285, 1, 0.0009939809, 0.001180177, 0.001119129, -0.0003413145, -0.002984468, -9.814768, 0, 0, 29.44645, 1, 1, 760, 800
 77213269, 0, 0.001100579, 0.001072314, 0.001089954, -0.0004795104, -0.0006127103, -9.81811, 0, 0, 29.44852, 1, 1, 1000, 1000
 77213269, 1, 0.001083859, 0.001303941, 0.0008190302, -0.003468375, -0.001612196, -9.818153, 0, 0, 29.44852, 1, 1, 760, 800
 77254086, 0, 0.001219983, 0.001125467, 0.001091834, -0.001689705, -0.0008954057, -9.81708, 0, 0, 29.4506, 1, 1, 1000, 1000
 77254086, 1, 0.001380247, 0.001030764, 0.00124573, -0.0018278, -0.0009363827, -9.81806, 0, 0, 29.45065, 1, 1, 760, 800
 77294070, 0, 0.0011697, 0.001124457, 0.001065998, -0.000637315, -0.001972607, -9.81746, 0, 0, 29.45267, 1, 1, 1000, 1000
 77294070, 1, 0.001053005, 0.001177673, 0.001307258, -0.001413053, -0.001929665, -9.818956, 0, 0, 29.45272, 1, 1, 760, 800
 77334054, 0, 0.001115973, 0.001154014, 0.001180027, 0.0007570281, -0.001343811, -9.817906, 0, 0, 29.45474, 1, 1, 1000, 1000
 77334054, 1, 0.001023775, 0.001286114, 0.0008593388, -0.001696971, 4.050169E-05, -9.818113, 0, 0, 29.45479, 1, 1, 760, 800
 77374038, 0, 0.001067578, 0.0010866, 0.001120243, -0.0013194, 0.0004845409, -9.818007, 0, 0, 29.45682, 1, 1, 1000, 1000
 77374038, 1, 0.0008629189, 0.001223121, 0.001285962, -0.001273427, -0.002247946, -9.819118, 0, 0, 29.45687, 1, 1, 760, 800
 77414022, 0, 0.001099475, 0.001136002, 0.001149862, -0.0006019175, -0.001096657, -9.816186, 0, 0, 29.45889, 1, 1, 1000, 1000
 77414022, 1, 0.001027877, 0.0009270371, 0.001082781, -0.0006090139, 0.001565389, -9.817954, 0, 0, 29.45894, 1, 1, 760, 800
 77454006, 0, 0.001141705, 0.001178273, 0.001113999, -0.0001630133, 0.0001519885, -9.816828, 0, 0, 29.46096, 1, 1, 1000, 1000
 77454006, 1, 0.001298534, 0.0009566134, 0.001026787, -0.001325401, -0.001921246, -9.813979, 0, 0, 29.46101, 1, 1, 760, 800
 77493990, 0, 0.001108999, 0.001117977, 0.001129135, -0.0006509366, -0.0009115509, -9.816756, 0, 0, 29.46303, 1, 1, 1000, 1000
 77493990, 1, 0.0007302282, 0.001330587, 0.001115592, 0.0004444848, -0.001065829, -9.818418, 0, 0, 29.46303, 1, 1, 760, 800
 77533974, 0, 0.001159089, 0.001112713, 0.001034999, -0.000632284, -0.0006543364, -9.817142, 0, 0, 29.4651, 1, 1, 1000, 1000
 77533974, 1, 0.001061327, 0.001181299, 0.0009285974, -0.001609729, -0.002367628, -9.820594, 0, 0, 29.4651, 1, 1, 760, 800
 77573958, 0, 0.001120916, 0.001173863, 0.001083052, -0.0007904391, -0.00156104, -9.817966, 0, 0, 29.46717, 1, 1, 1000, 1000
 77573958, 1, 0.00114863, 0.001114352, 0.001012555, -0.0007298557, -0.002251042, -9.819949, 0, 0, 29.46717, 1, 1, 760, 800
 77613942, 0, 0.001150496, 0.001104584, 0.001102908, -0.001177073, -0.001553145, -9.817396, 0, 0, 29.46924, 1, 1, 1000, 1000
 77613942, 1, 0.000785907, 0.001249339, 0.001011844, 0.000407042, -0.001092715, -9.816547, 0, 0, 29.46924, 1, 1, 760, 800
 77653926, 0, 0.001040098, 0.001057383, 0.001156564, -0.00151148, -0.0005853944, -9.818348, 0, 0, 29.47132, 1, 1, 1000, 1000
 77653926, 1, 0.0009960744, 0.00104785, 0.00117745, -0.001551413, 0.001644896, -9.817982, 0, 0, 29.47132, 1, 1, 760, 800
 77693910, 0, 0.001117534, 0.001159934, 0.001175891, -0.0007445489, -0.0004470944, -9.817631, 0, 0, 29.47338, 1, 1, 1000, 1000
 77693910, 1, 0.001351923, 0.001444554, 0.001029457, -0.001065141, -0.00135495, -9.817649, 0, 0, 29.47338, 1, 1, 760, 800
 77733894, 0, 0.001076906, 0.001090743, 0.001160703, -0.001541335, -0.001966855, -9.817136, 0, 0, 29.47546, 1, 1, 1000, 1000
 77733894, 1, 0.0007980266, 0.0009897756, 0.00109069, -0.002166612, 0.0004627354, -9.814713, 0, 0, 29.47546, 1, 1, 760, 800
 77773878, 0, 0.001153817, 0.001139161, 0.001137118, -0.0008449638, -0.00160225, -9.817197, 0, 0, 29.47753, 1, 1, 1000, 1000
 77773878, 1, 0.001446669, 0.001271052, 0.0009957608, -0.001836154, 0.0001740478, -9.814262, 0, 0, 29.47753, 1, 1, 760, 800
 77813862, 0, 0.001175722, 0.001083561, 0.00107633, -0.0006270473, -0.001067619, -9.817347, 0, 0, 29.4796, 1, 1, 1000, 1000
 77813862, 1, 0.00110117, 0.00117313, 0.00128312, -0.001108995, -0.001714195, -9.818143, 0, 0, 29.4796, 1, 1, 760, 800
 77853846, 0, 0.001074751, 0.001190213, 0.001146935, -0.0007946038, -0.001549552, -9.819039, 0, 0, 29.48166, 1, 1, 1000, 1000
 77853846, 1, 0.001337057, 0.001110298, 0.0009366507, -0.0009627943, -0.001744352, -9.81846, 0, 0, 29.48166, 1, 1, 760, 800
 77893830, 0, 0.001048328, 0.001083673, 0.001077195, -0.0008071109, -0.0003439759, -9.816507, 0, 0, 29.48373, 1, 1, 1000, 1000
 77893830, 1, 0.0009389477, 0.001268653, 0.001110908, 0.000368559, -0.00397847, -9.816156, 0, 0, 29.48368, 1, 1, 760, 800
 77933814, 0, 0.001202514, 0.001111312, 0.001108498, -0.00140298, -0.001365948, -9.817653, 0, 0, 29.4858, 1, 1, 1000, 1000
 77933814, 1, 0.001081865, 0.001312068, 0.001333551, -0.0007750465, -0.0004317452, -9.815585, 0, 0, 29.48575, 1, 1, 760, 800
 77973798, 0, 0.001113364, 0.001122211, 0.001050845, -0.00161941, -0.0006648056, -9.817301, 0, 0, 29.48787, 1, 1, 1000, 1000
 77973798, 1, 0.001036078, 0.001037206, 0.001178611, -0.002663232, -0.003266853, -9.818438, 0, 0, 29.48782, 1, 1, 760, 800
 78013782, 0, 0.001087111, 0.00111874, 0.001074997, -0.0006487492, -0.000892914, -9.818554, 0, 0, 29.48994, 1, 1, 1000, 1000
 78013782, 1, 0.001257057, 0.001184649, 0.001196417, -0.001581222, -0.001398212, -9.816379, 0, 0, 29.48989, 1, 1, 760, 800
 78053766, 0, 0.001056463, 0.001123269, 0.001101566, -0.0002789896, -0.001571622, -9.817204, 0, 0, 29.49201, 1, 1, 1000, 1000
 78053766, 1, 0.001157896, 0.001106501, 0.001100414, -0.001947721, -0.0003094528, -9.817389, 0, 0, 29.49195, 1, 1, 760, 800
 78093750, 0, 0.001192605, 0.001115488, 0.00110044, -0.0008718257, -0.000407984, -9.817212, 0, 0, 29.49408, 1, 1, 1000, 1000
 78093750, 1, 0.0009561852, 0.001225243, 0.0009370631, -0.002070112, -0.002762506, -9.815628, 0, 0, 29.49402, 1, 1, 760, 800
 78133734, 0, 0.001150247, 0.001118797, 0.001064649, -0.0007565932, -0.002377904, -9.816502, 0, 0, 29.49614, 1, 1, 1000, 1000
 78133734, 1, 0.001172684, 0.0009952516, 0.001229091, -0.003909739, -0.001954008, -9.818329, 0, 0, 29.49609, 1, 1, 760, 800
 78173718, 0, 0.001152553, 0.001146788, 0.001129542, -0.0007479625, -0.000179875, -9.817869, 0, 0, 29.49821, 1, 1, 1000, 1000
 78173718, 1, 0.00109709, 0.001157174, 0.001209544, 0.001260688, -0.001343936, -9.820686, 0, 0, 29.49816, 1, 1, 760, 800
 78213702, 0, 0.001090197, 0.001146105, 0.001239657, -0.001030539, -0.001673729, -9.817337, 0, 0, 29.50027, 1, 1, 1000, 1000
 78213702, 1, 0.001360446, 0.001143472, 0.00103017, -0.0008724988, -0.001958547, -9.818506, 0, 0, 29.50022, 1, 1, 760, 800
 78253686, 0, 0.001153615, 0.001171985, 0.00110156, -0.001395578, -0.0001952841, -9.817317, 0, 0, 29.50234, 1, 1, 1000, 1000
 78253686, 1, 0.001114186, 0.001099345, 0.0009228888, -1.587276E-05, -0.0001691603, -9.817833, 0, 0, 29.50229, 1, 1, 760, 800
 78293670, 0, 0.001120151, 0.001043884, 0.001140875, -0.0007787393, -0.001602373, -9.817267, 0, 0, 29.50441, 1, 1, 1000, 1000
 78293670, 1, 0.001156916, 0.00139311, 0.001202394, -0.003666192, -0.001656971, -9.817103, 0, 0, 29.50436, 1, 1, 760, 800
 78333654, 0, 0.001117016, 0.001003392, 0.001146809, -0.0008816062, -0.0005167723, -9.818045, 0, 0, 29.50647, 1, 1, 1000, 1000
 78333654, 1, 0.001238556, 0.001302492, 0.001055526, 0.0005938224, -0.0007527321, -9.817417, 0, 0, 29.50642, 1, 1, 760, 800
 78373638, 0, 0.001146248, 0.001046311, 0.001153654, -0.001750329, -0.0003047428, -9.818102, 0, 0, 29.50854, 1, 1, 1000, 1000
 78373638, 1, 0.001079327, 0.001060992, 0.001032105, -0.00334349, -0.002710295, -9.819128, 0, 0, 29.50849, 1, 1, 760, 800
 78413622, 0, 0.001143323, 0.001189372, 0.00118099, -0.001624525, -0.0006216249, -9.818478, 0, 0, 29.5106, 1, 1, 1000, 1000
 78413622, 1, 0.001244041, 0.001238645, 0.0009610115, -0.001659053, -0.001507419, -9.817785, 0, 0, 29.51056, 1, 1, 760, 800
 78453606, 0, 0.001137829, 0.001120457, 0.001185742, -0.00105364, -0.0009912634, -9.818419, 0, 0, 29.51267, 1, 1, 1000, 1000
 78453606, 1, 0.001068475, 0.001260584, 0.001036976, -0.001193172, -0.00364652, -9.816962, 0, 0, 29.51262, 1, 1, 760, 800
 78493590, 0, 0.001045851, 0.001090685, 0.001084052, -0.001430308, -0.0001934386, -9.817999, 0, 0, 29.51473, 1, 1, 1000, 1000
 78493590, 1, 0.001335531, 0.001133463, 0.001039138, -0.002585319, 6.741793E-05, -9.816895, 0, 0, 29.51468, 1, 1, 760, 800
 78533574, 0, 0.001130682, 0.00108488, 0.001159729, 0.0001282067, -0.001475787, -9.817673, 0, 0, 29.5168, 1, 1, 1000, 1000
 78533574, 1, 0.001025612, 0.001309343, 0.001119923, 0.001571754, -0.003893118, -9.816209, 0, 0, 29.51675, 1, 1, 760, 800
 78573558, 0, 0.001090793, 0.001192288, 0.001091122, -0.001962825, -0.002189063, -9.817665, 0, 0, 29.51886, 1, 1, 1000, 1000
 78573558, 1, 0.0009510836, 0.001108415, 0.001047979, -0.00178306, -0.0007175011, -9.816895, 0, 0, 29.51881, 1, 1, 760, 800
 78613542, 0, 0.001113966, 0.001178301, 0.001136705, -0.001552814, -0.001338522, -9.817701, 0, 0, 29.52093, 1, 1, 1000, 1000
 78613542, 1, 0.001029038, 0.001225387, 0.001350346, -0.001391717, -0.002106156, -9.817381, 0, 0, 29.52088, 1, 1, 760, 800
 78653526, 0, 0.001173942, 0.001107341, 0.001145636, 0.0002651295, -0.000870504, -9.817184, 0, 0, 29.52299, 1, 1, 1000, 1000
 78653526, 1, 0.001148034, 0.001145413, 0.00103406, -0.003778347, -0.002049315, -9.815679, 0, 0, 29.52294, 1, 1, 760, 800
 78693510, 0, 0.001153856, 0.001114299, 0.001146309, -0.001550337, -0.0007920951, -9.817095, 0, 0, 29.52505, 1, 1, 1000, 1000
 78693510, 1, 0.001013832, 0.001130734, 0.001199727, 0.001921028, -0.00183295, -9.816527, 0, 0, 29.525, 1, 1, 760, 800
 78733494, 0, 0.001123872, 0.001126482, 0.001082825, -0.002188209, -0.0001279962, -9.816936, 0, 0, 29.52712, 1, 1, 1000, 1000
 78733494, 1, 0.001079233, 0.001044323, 0.001028099, -0.004377624, 0.0005806676, -9.817494, 0, 0, 29.52707, 1, 1, 760, 800
 78773478, 0, 0.001161362, 0.001142207, 0.001123977, -0.001302173, -0.001237714, -9.816707, 0, 0, 29.52918, 1, 1, 1000, 1000
 78773478, 1, 0.001233528, 0.001199031, 0.001362341, 0.001286645, -0.00193268, -9.819242, 0, 0, 29.52913, 1, 1, 760, 800
 78813462, 0, 0.001084928, 0.001147635, 0.001102796, -0.0006854123, -0.001120342, -9.817011, 0, 0, 29.53124, 1, 1, 1000, 1000
 78813462, 1, 0.0009429778, 0.0009486722, 0.00110629, -0.0004369276, -0.000457567, -9.816809, 0, 0, 29.53124, 1, 1, 760, 800
 78853446, 0, 0.001189475, 0.001135875, 0.001138814, -0.0006004614, -0.001374865, -9.817424, 0, 0, 29.53331, 1, 1, 1000, 1000
 78853446, 1, 0.001060543, 0.001271325, 0.001197034, -0.001789062, -0.002484286, -9.819212, 0, 0, 29.53331, 1, 1, 760, 800
 78893430, 0, 0.001159926, 0.00114029, 0.001101349, -0.00145961, -0.00121826, -9.818789, 0, 0, 29.53537, 1, 1, 1000, 1000
 78893430, 1, 0.001216204, 0.001063241, 0.00105694, -0.002621171, -0.001190547, -9.818984, 0, 0, 29.53537, 1, 1, 760, 800
 78933414, 0, 0.001115025, 0.001135495, 0.001113017, -0.001714719, -0.0008857548, -9.81725, 0, 0, 29.53743, 1, 1, 1000, 1000
 78933414, 1, 0.0009220541, 0.00120798, 0.001023812, -0.002427285, 0.0001444032, -9.816589, 0, 0, 29.53743, 1, 1, 760, 800
 78973398, 0, 0.00114861, 0.001086911, 0.001156057, -0.000745808, -0.001268382, -9.816956, 0, 0, 29.53949, 1, 1, 1000, 1000
 78973398, 1, 0.001078326, 0.001284149, 0.001201676, -0.0002796739, -0.0006798849, -9.817755, 0, 0, 29.53949, 1, 1, 760, 800
 79013382, 0, 0.001131466, 0.001158139, 0.001117367, -0.001029953, -0.001443166, -9.817087, 0, 0, 29.54155, 1, 1, 1000, 1000
 79013382, 1, 0.001043103, 0.001155346, 0.00108157, 0.0001939366, -0.003432787, -9.818738, 0, 0, 29.54155, 1, 1, 760, 800
 79053366, 0, 0.00114593, 0.001158547, 0.001098242, -0.001267762, -0.000798271, -9.816876, 0, 0, 29.54361, 1, 1, 1000, 1000
 79053366, 1, 0.001285486, 0.001145347, 0.001069924, -0.0003389217, 8.950018E-05, -9.816381, 0, 0, 29.54361, 1, 1, 760, 800
 79093350, 0, 0.00113435, 0.00113353, 0.001166244, -0.0006751707, -0.001442416, -9.817148, 0, 0, 29.54567, 1, 1, 1000, 1000
 79093350, 1, 0.001187313, 0.001050905, 0.001121807, -0.0001419728, 0.0001779708, -9.815826, 0, 0, 29.54567, 1, 1, 760, 800
 79133334, 0, 0.001191929, 0.001128815, 0.001151457, -0.001208126, -0.000403649, -9.818587, 0, 0, 29.54774, 1, 1, 1000, 1000
 79133334, 1, 0.001119148, 0.001121269, 0.001085389, -0.001934376, -0.0007372604, -9.816181, 0, 0, 29.54774, 1, 1, 760, 800
 79173318, 0, 0.001135867, 0.001103038, 0.001092914, -0.001005183, -0.001535133, -9.816441, 0, 0, 29.5498, 1, 1, 1000, 1000
 79173318, 1, 0.00103829, 0.001215923, 0.0008193211, -0.001882846, -0.003177501, -9.815512, 0, 0, 29.5498, 1, 1, 760, 800
 79213302, 0, 0.001155807, 0.00113309, 0.001088736, -0.001336234, -0.001303704, -9.81728, 0, 0, 29.55186, 1, 1, 1000, 1000
 79213302, 1, 0.001013937, 0.001131991, 0.001103531, 0.0007682288, -0.003823169, -9.818083, 0, 0, 29.55186, 1, 1, 760, 800
 79253286, 0, 0.001150606, 0.001154881, 0.001167895, -0.001603586, -0.001205594, -9.81794, 0, 0, 29.55391, 1, 1, 1000, 1000
 79253286, 1, 0.00104365, 0.001064612, 0.001164429, -0.0004690607, -0.002739098, -9.818008, 0, 0, 29.55391, 1, 1, 760, 800
 79293270, 0, 0.001154023, 0.001138496, 0.001126582, -0.0009629773, -0.001500072, -9.817767, 0, 0, 29.55597, 1, 1, 1000, 1000
 79293270, 1, 0.001311508, 0.001360714, 0.00119987, -0.002443426, -0.002736186, -9.817115, 0, 0, 29.55597, 1, 1, 760, 800
 79334087, 0, 0.001123068, 0.001147698, 0.001112542, -0.0007287117, -0.0009282179, -9.816826, 0, 0, 29.55803, 1, 1, 1000, 1000
 79334087, 1, 0.001136533, 0.001312272, 0.001016459, 0.0001003241, -0.001153382, -9.818585, 0, 0, 29.55808, 1, 1, 760, 800
 79374071, 0, 0.001071681, 0.00114507, 0.001147386, -0.0007113574, -0.000499173, -9.817575, 0, 0, 29.56009, 1, 1, 1000, 1000
 79374071, 1, 0.001084551, 0.001212682, 0.00109742, -0.003110513, -0.0006399114, -9.816515, 0, 0, 29.56014, 1, 1, 760, 800
 79414055, 0, 0.001110581, 0.001185128, 0.001072778, -0.001873533, -0.0008032681, -9.817855, 0, 0, 29.56215, 1, 1, 1000, 1000
 79414055, 1, 0.001274535, 0.001110879, 0.001044929, -0.002464382, -0.001091434, -9.818913, 0, 0, 29.5622, 1, 1, 760, 800
 79454039, 0, 0.001127299, 0.001139636, 0.001191162, -0.00185335, -0.002271801, -9.817418, 0, 0, 29.56421, 1, 1, 1000, 1000
 79454039, 1, 0.00104661, 0.001176755, 0.001152301, 0.0004387005, 0.0009409986, -9.81751, 0, 0, 29.56426, 1, 1, 760, 800
 79494023, 0, 0.001175812, 0.001155628, 0.001133519, -0.001422432, -0.001156002, -9.817579, 0, 0, 29.56627, 1, 1, 1000, 1000
 79494023, 1, 0.001076529, 0.00117996, 0.001193418, -0.0008080562, -0.001200498, -9.819396, 0, 0, 29.56632, 1, 1, 760, 800
 79534007, 0, 0.001130569, 0.00115534, 0.001142013, -0.001525058, -0.001059186, -9.816843, 0, 0, 29.56833, 1, 1, 1000, 1000
 79534007, 1, 0.001063587, 0.001119435, 0.0009957022, -0.002802214, -0.0006999879, -9.816649, 0, 0, 29.56837, 1, 1, 760, 800
 79573991, 0, 0.001136244, 0.001142406, 0.001135091, -0.0005202879, -0.00222705, -9.818017, 0, 0, 29.57038, 1, 1, 1000, 1000
 79573991, 1, 0.001147439, 0.0009646829, 0.0009503282, 0.0007023052, -0.0005411467, -9.818306, 0, 0, 29.57038, 1, 1, 760, 800
 79613975, 0, 0.001108782, 0.001092518, 0.001102399, -0.0006982575, -0.001393793, -10.39351, 0, 0, 29.57244, 1, 1, 1000, 1000
 79613975, 1, 0.0009726265, 0.001097879, 0.001176929, -0.0005055512, -0.0005442101, -10.39482, 0, 0, 29.57244, 1, 1, 760, 800
 79653959, 0, 0.001149526, 0.001165761, 0.001150386, -0.0008696974, -0.0002562841, -10.943, 0, 0, 29.5745, 1, 1, 1000, 1000
 79653959, 1, 0.0009321989, 0.001325901, 0.001317564, 0.00031579, 0.0009580764, -10.94164, 0, 0, 29.5745, 1, 1, 760, 800
 79693943, 0, 0.001131597, 0.001087562, 0.001140453, -0.0006377841, -0.002044019, -11.12783, 0, 0, 29.57655, 1, 1, 1000, 1000
 79693943, 1, 0.001051456, 0.00127369, 0.001174899, -0.0009528929, -0.002241355, -11.12542, 0, 0, 29.57655, 1, 1, 760, 800
 79733927, 0, 0.001146041, 0.001105972, 0.001111512, -0.00108351, -0.0008605716, -11.19898, 0, 0, 29.57861, 1, 1, 1000, 1000
 79733927, 1, 0.001203987, 0.001138838, 0.001188666, -0.0002735179, -0.0009733123, -11.19598, 0, 0, 29.57861, 1, 1, 760, 800
 79773911, 0, 0.001161138, 0.001067265, 0.001158199, -0.00105398, -0.000342781, -11.22224, 0, 0, 29.58067, 1, 1, 1000, 1000
 79773911, 1, 0.0010184, 0.001234279, 0.001112129, -0.0005071511, -0.0008855277, -11.21859, 0, 0, 29.58067, 1, 1, 760, 800
 79813895, 0, 0.001161079, 0.001128231, 0.001145344, -0.00189304, -0.001111721, -11.2136, 0, 0, 29.58272, 1, 1, 1000, 1000
 79813895, 1, 0.001080013, 0.001190407, 0.001146024, -0.0006614911, -0.0004877143, -11.20995, 0, 0, 29.58272, 1, 1, 760, 800
 79853879, 0, 0.001134172, 0.00117895, 0.001157235, -0.001780517, 0.0002743927, -11.20114, 0, 0, 29.58478, 1, 1, 1000, 1000
 79853879, 1, 0.00111371, 0.001104797, 0.001211567, -0.003927122, -0.0007236919, -11.20486, 0, 0, 29.58478, 1, 1, 760, 800
 79893863, 0, 0.001121688, 0.001155137, 0.001150043, -0.0004926815, -0.0004338761, -11.1783, 0, 0, 29.58683, 1, 1, 1000, 1000
 79893863, 1, 0.000910958, 0.001147483, 0.001180421, -0.001732952, 0.0009602691, -11.18315, 0, 0, 29.58683, 1, 1, 760, 800
 79933847, 0, 0.001145142, 0.001160091, 0.001114848, -0.0002318722, -0.00117407, -11.15751, 0, 0, 29.58889, 1, 1, 1000, 1000
 79933847, 1, 0.001114523, 0.001215176, 0.001240983, 0.0009826273, -0.000776286, -11.16371, 0, 0, 29.58889, 1, 1, 760, 800
 79973831, 0, 0.00122214, 0.001186251, 0.001130645, -0.001179566, -0.001260619, -11.13239, 0, 0, 29.59094, 1, 1, 1000, 1000
 79973831, 1, 0.001272036, 0.00120636, 0.001030048, 0.0007977724, -0.00184843, -11.1385, 0, 0, 29.59089, 1, 1, 760, 800
 80013815, 0, 0.00112747, 0.001172235, 0.001102131, -0.0006912489, -0.0005342297, -11.10796, 0, 0, 29.59299, 1, 1, 1000, 1000
 80013815, 1, 0.001122326, 0.001105212, 0.001123708, -0.002604684, 0.0009622829, -11.11557, 0, 0, 29.59294, 1, 1, 760, 800
 80053799, 0, -0.02634977, -0.02423054, 0.001138095, 0.0006746274, -0.002153026, -14.2246, 0, 0, 29.59505, 1, 1, 1000, 1000
 80053799, 1, -0.02619156, -0.02419847, 0.001129245, 0.00179799, -0.001245591, -14.19551, 0, 0, 29.595, 1, 1, 760, 800
 80093783, 0, -0.03062037, -0.0282965, 0.0007908455, -0.002424414, 0.001446224, -16.1038, 0, 0, 29.5971, 1, 1, 1000, 1000
 80093783, 1, -0.03051807, -0.02823291, 0.0008506667, -0.002263132, -5.513233E-05, -16.07201, 0, 0, 29.59705, 1, 1, 760, 800
 80133767, 0, -0.02688299, -0.02686115, 0.0008302462, -0.009768083, 0.007000762, -15.89601, 0, 0, 29.59916, 1, 1, 1000, 1000
 80133767, 1, -0.02667372, -0.02702248, 0.0009221975, -0.006606424, 0.006491737, -15.87972, 0, 0, 29.59911, 1, 1, 760, 800
 80173751, 0, -0.02150119, -0.02039419, 0.0008063304, -0.01648076, 0.01571391, -15.00867, 0, 0, 29.60121, 1, 1, 1000, 1000
 80173751, 1, -0.02144035, -0.02047821, 0.000867864, -0.01574697, 0.01164962, -14.99991, 0, 0, 29.60116, 1, 1, 760, 800
 80213735, 0, -0.01614609, -0.01423171, 0.0007112602, -0.01715783, 0.01808268, -13.89766, 0, 0, 29.60326, 1, 1, 1000, 1000
 80213735, 1, -0.01632867, -0.01423099, 0.0006906067, -0.0162225, 0.0173309, -13.90008, 0, 0, 29.60321, 1, 1, 760, 800
 80253719, 0, -0.008855915, -0.008031668, 0.0005665137, -0.01767713, 0.01645395, -12.79172, 0, 0, 29.60532, 1, 1, 1000, 1000
 80253719, 1, -0.008846145, -0.007871284, 0.0008183038, -0.01788701, 0.01720671, -12.79815, 0, 0, 29.60526, 1, 1, 760, 800
 80293703, 0, -0.004047501, -0.002922863, 0.0005053511, -0.01487709, 0.01331197, -11.82619, 0, 0, 29.60737, 1, 1, 1000, 1000
 80293703, 1, -0.003911693, -0.002816208, 0.0004376056, -0.01392657, 0.01505187, -11.83555, 0, 0, 29.60732, 1, 1, 760, 800
 80333687, 0, 0.003361339, 0.00255938, 0.0004895098, -0.01141197, 0.008762705, -11.0733, 0, 0, 29.60942, 1, 1, 1000, 1000
 80333687, 1, 0.003308461, 0.002323521, 0.000439375, -0.01207812, 0.009739133, -11.08531, 0, 0, 29.60937, 1, 1, 760, 800
 80373671, 0, 0.007092458, 0.006099191, 0.0005042113, -0.005493918, 0.004822637, -10.56977, 0, 0, 29.61147, 1, 1, 1000, 1000
 80373671, 1, 0.007067337, 0.005960645, 0.0003841783, -0.01029635, 0.005029737, -10.58076, 0, 0, 29.61142, 1, 1, 760, 800
 80413655, 0, 0.009290912, 0.007726602, 0.0003919491, -0.004359564, 0.001878442, -10.28737, 0, 0, 29.61353, 1, 1, 1000, 1000
 80413655, 1, 0.009192617, 0.00773185, 0.0003959204, -0.003492631, -0.0005404471, -10.29632, 0, 0, 29.61347, 1, 1, 760, 800
 80453639, 0, 0.01192277, 0.01021777, 0.000370876, -0.002194797, 0.001866784, -10.18669, 0, 0, 29.61558, 1, 1, 1000, 1000
 80453639, 1, 0.01203717, 0.01037012, 0.0004433783, -0.003193562, 0.002371187, -10.19286, 0, 0, 29.61552, 1, 1, 760, 800
 80493623, 0, 0.01370354, 0.01201596, 0.0003319879, -0.00106253, -0.001222666, -10.229, 0, 0, 29.61763, 1, 1, 1000, 1000
 80493623, 1, 0.01371784, 0.01201526, 0.0003233476, -0.002436025, 0.0004625065, -10.22847, 0, 0, 29.61758, 1, 1, 760, 800
 80533607, 0, 0.01443584, 0.01282073, 0.000369447, -0.002443605, 0.0006076201, -10.33425, 0, 0, 29.61968, 1, 1, 1000, 1000
 80533607, 1, 0.01424995, 0.01260974, 0.0004266962, -0.001090001, 0.002315622, -10.33343, 0, 0, 29.61963, 1, 1, 760, 800
 80573591, 0, 0.01368102, 0.01209148, 0.0003560338, -0.003963853, 0.00194059, -10.48035, 0, 0, 29.62173, 1, 1, 1000, 1000
 80573591, 1, 0.01367697, 0.012066, 0.0003591817, -0.002160678, 0.0004043037, -10.48061, 0, 0, 29.62168, 1, 1, 760, 800
 80613575, 0, 0.0119393, 0.01049186, 0.0003214584, -0.003976917, 0.003190243, -10.61926, 0, 0, 29.62378, 1, 1, 1000, 1000
 80613575, 1, 0.01189671, 0.01065576, 0.0002310015, -0.003945109, 0.001746804, -10.61735, 0, 0, 29.62373, 1, 1, 760, 800
 80653559, 0, 0.01214431, 0.009562248, 0.0003877378, -0.004668407, 0.002654427, -10.74037, 0, 0, 29.62583, 1, 1, 1000, 1000
 80653559, 1, 0.01218206, 0.009783836, 0.0003171256, -0.003888979, 0.002606998, -10.73709, 0, 0, 29.62578, 1, 1, 760, 800
 80693543, 0, 0.009899849, 0.01002625, 0.0002862439, -0.005653473, 0.005136663, -10.8169, 0, 0, 29.62788, 1, 1, 1000, 1000
 80693543, 1, 0.009758761, 0.009974551, 0.0002539188, -0.004318979, 0.002019323, -10.81451, 0, 0, 29.62783, 1, 1, 760, 800
 80733527, 0, 0.00815251, 0.008734211, 0.0002752714, -0.006685127, 0.004344755, -10.86378, 0, 0, 29.62993, 1, 1, 1000, 1000
 80733527, 1, 0.00801881, 0.008949071, 0.0004209278, -0.007665506, 0.005631217, -10.86363, 0, 0, 29.62988, 1, 1, 760, 800
 80773511, 0, 0.007680437, 0.007683652, 0.0002925369, -0.006663461, 0.004558451, -10.87103, 0, 0, 29.63198, 1, 1, 1000, 1000
 80773511, 1, 0.007790653, 0.007729089, 0.0003424833, -0.008258894, 0.004754232, -10.87019, 0, 0, 29.63193, 1, 1, 760, 800
 80813495, 0, 0.006434472, 0.006995389, 0.000237613, -0.005797073, 0.00597329, -10.85085, 0, 0, 29.63403, 1, 1, 1000, 1000
 80813495, 1, 0.006298073, 0.006943823, 0.0003478839, -0.006690399, 0.005201336, -10.84887, 0, 0, 29.63398, 1, 1, 760, 800
 80853479, 0, 0.006358533, 0.006446885, 0.0003071972, -0.007316035, 0.005850388, -10.81224, 0, 0, 29.63607, 1, 1, 1000, 1000
 80853479, 1, 0.006301116, 0.00662812, 0.0004452835, -0.00459104, 0.007327362, -10.81337, 0, 0, 29.63602, 1, 1, 760, 800
 80893463, 0, 0.007216984, 0.004803944, 0.0003395763, -0.00748189, 0.00638492, -10.76538, 0, 0, 29.63812, 1, 1, 1000, 1000
 80893463, 1, 0.007053445, 0.004824674, 0.0004981285, -0.009411795, 0.004976736, -10.76677, 0, 0, 29.63812, 1, 1, 760, 800
 80933447, 0, 0.003918098, 0.007399643, 0.0004042731, -0.006075239, 0.004847245, -10.71606, 0, 0, 29.64017, 1, 1, 1000, 1000
 80933447, 1, 0.003720611, 0.007231026, 0.000466293, -0.007836393, 0.006998457, -10.71753, 0, 0, 29.64017, 1, 1, 760, 800
 80973431, 0, 0.007179682, 0.005283532, 0.0004137117, -0.008173419, 0.005647164, -10.65401, 0, 0, 29.64222, 1, 1, 1000, 1000
 80973431, 1, 0.006932006, 0.005207685, 0.0004143878, -0.00712009, 0.005890545, -10.65573, 0, 0, 29.64222, 1, 1, 760, 800
 81013415, 0, 0.006490204, 0.005403215, 0.0004134073, -0.007833496, 0.005950838, -10.61835, 0, 0, 29.64427, 1, 1, 1000, 1000
 81013415, 1, 0.006599719, 0.00553257, 0.0003843519, -0.006790255, 0.00543294, -10.61864, 0, 0, 29.64427, 1, 1, 760, 800
 81053399, 0, 0.00355304, 0.004156571, 0.0004117253, -0.00734995, 0.00469294, -10.58361, 0, 0, 29.64631, 1, 1, 1000, 1000
 81053399, 1, 0.003759074, 0.004342277, 0.0003001136, -0.008920841, 0.006764852, -10.58332, 0, 0, 29.64631, 1, 1, 760, 800
 81093383, 0, 0.003619222, 0.004202196, 0.0003664814, -0.008230184, 0.004119056, -10.54695, 0, 0, 29.64836, 1, 1, 1000, 1000
 81093383, 1, 0.003535311, 0.004245856, 0.000334604, -0.008186321, 0.008931753, -10.54918, 0, 0, 29.64836, 1, 1, 760, 800
 81133367, 0, 0.003606991, 0.004104729, 0.0004270445, -0.007567664, 0.005849273, -10.51808, 0, 0, 29.65041, 1, 1, 1000, 1000
 81133367, 1, 0.003543732, 0.004004834, 0.0002717132, -0.006929952, 0.0051678, -10.51642, 0, 0, 29.65041, 1, 1, 760, 800
 81173351, 0, 0.004479513, 0.005014729, 0.0004444378, -0.007569382, 0.0050932, -10.52369, 0, 0, 29.65245, 1, 1, 1000, 1000
 81173351, 1, 0.004592801, 0.005101414, 0.0004421383, -0.00474091, 0.004659745, -10.52556, 0, 0, 29.65245, 1, 1, 760, 800
 81213335, 0, 0.003126227, 0.004717928, 0.0005549731, -0.007436083, 0.00499952, -10.50688, 0, 0, 29.6545, 1, 1, 1000, 1000
 81213335, 1, 0.003387105, 0.005014945, 0.0005518713, -0.006575103, 0.006781149, -10.50717, 0, 0, 29.6545, 1, 1, 760, 800
 81253319, 0, 0.004143373, 0.005412819, 0.0006536696, -0.007403693, 0.004101876, -10.48604, 0, 0, 29.65655, 1, 1, 1000, 1000
 81253319, 1, 0.003998596, 0.005281133, 0.0005226591, -0.005782245, 0.00631729, -10.48788, 0, 0, 29.65655, 1, 1, 760, 800
 81293303, 0, 0.004267436, 0.004203502, 0.0006816419, -0.007650221, 0.005514045, -10.40257, 0, 0, 29.65859, 1, 1, 1000, 1000
 81293303, 1, 0.004455327, 0.004197403, 0.0005837387, -0.005183641, 0.005766932, -10.40334, 0, 0, 29.65859, 1, 1, 760, 800
 81333287, 0, 0.003576866, 0.003606191, 0.0007991575, -0.007434676, 0.005086233, -10.29694, 0, 0, 29.66064, 1, 1, 1000, 1000
 81333287, 1, 0.003534287, 0.003623077, 0.0007512449, -0.004666856, 0.005190818, -10.29927, 0, 0, 29.66064, 1, 1, 760, 800
 81373271, 0, 0.001835739, 0.002477173, 0.0009102505, -0.006477226, 0.004893835, -10.20736, 0, 0, 29.66268, 1, 1, 1000, 1000
 81373271, 1, 0.001736248, 0.002480311, 0.001046125, -0.006682505, 0.004610517, -10.20808, 0, 0, 29.66268, 1, 1, 760, 800
 81414088, 0, 0.001698902, 0.002124962, 0.0009850248, -0.006589034, 0.003987009, -10.11534, 0, 0, 29.66473, 1, 1, 1000, 1000
 81414088, 1, 0.001793018, 0.00218812, 0.0009979007, -0.009623048, 0.00575898, -10.11546, 0, 0, 29.66478, 1, 1, 760, 800
 81454072, 0, 0.001346792, 0.001768095, 0.001028979, -0.008001383, 0.004054023, -10.03692, 0, 0, 29.66677, 1, 1, 1000, 1000
 81454072, 1, 0.001221899, 0.001593537, 0.0009933278, -0.01081449, 0.004133474, -10.03553, 0, 0, 29.66682, 1, 1, 760, 800
 81494056, 0, 0.002622155, 0.004892471, 0.001110516, -0.006111806, 0.005211617, -9.962501, 0, 0, 29.66882, 1, 1, 1000, 1000
 81494056, 1, 0.002542278, 0.004842319, 0.00108362, -0.006062313, 0.005405407, -9.962329, 0, 0, 29.66887, 1, 1, 760, 800
 81534040, 0, 0.002499726, 0.004630732, 0.00109188, -0.006438171, 0.004002472, -9.894727, 0, 0, 29.67086, 1, 1, 1000, 1000
 81534040, 1, 0.002468016, 0.004655278, 0.001109562, -0.008892619, 0.00793215, -9.893879, 0, 0, 29.67091, 1, 1, 760, 800
 81574024, 0, 0.001532885, 0.001891182, 0.001185638, -0.006672936, 0.004809886, -9.834353, 0, 0, 29.6729, 1, 1, 1000, 1000
 81574024, 1, 0.001487889, 0.00194796, 0.001191069, -0.007144398, 0.00573726, -9.836641, 0, 0, 29.67295, 1, 1, 760, 800
 81614008, 0, 0.003005556, 0.003967532, 0.001247106, -0.005456694, 0.003842619, -9.783675, 0, 0, 29.67495, 1, 1, 1000, 1000
 81614008, 1, 0.002961041, 0.004111513, 0.001228776, -0.005723523, 0.00447429, -9.780657, 0, 0, 29.675, 1, 1, 760, 800
 81653992, 0, 0.002623033, 0.002813298, 0.001209598, -0.006621309, 0.004748799, -9.732129, 0, 0, 29.67699, 1, 1, 1000, 1000
 81653992, 1, 0.002637235, 0.002864391, 0.001159501, -0.007452039, 0.004525888, -9.733332, 0, 0, 29.67699, 1, 1, 760, 800
 81693976, 0, 0.00164037, 0.003562227, 0.001155154, -0.00733302, 0.003245629, -9.690104, 0, 0, 29.67903, 1, 1, 1000, 1000
 81693976, 1, 0.001686782, 0.003708545, 0.001149065, -0.008608045, 0.005209108, -9.688415, 0, 0, 29.67903, 1, 1, 760, 800
 81733960, 0, 0.002719295, 0.004270647, 0.00126722, -0.006004813, 0.003971266, -9.609171, 0, 0, 29.68108, 1, 1, 1000, 1000
 81733960, 1, 0.002693108, 0.004326721, 0.001095202, -0.006500502, 0.003210417, -9.608055, 0, 0, 29.68108, 1, 1, 760, 800
 81773944, 0, 0.002717507, 0.002193868, 0.001142343, -0.005580932, 0.004186569, -9.528666, 0, 0, 29.68312, 1, 1, 1000, 1000
 81773944, 1, 0.002608611, 0.002026259, 0.001189869, -0.007000705, 0.002297176, -9.527252, 0, 0, 29.68312, 1, 1, 760, 800
 81813928, 0, 0.002018606, 0.001719555, 0.001192761, -0.005062416, 0.003625401, -9.450336, 0, 0, 29.68516, 1, 1, 1000, 1000
 81813928, 1, 0.00212796, 0.001675236, 0.001232169, -0.007182339, 0.004131501, -9.450012, 0, 0, 29.68516, 1, 1, 760, 800
 81853912, 0, 0.002007809, 0.001204795, 0.001162246, -0.005106582, 0.004128328, -9.385685, 0, 0, 29.6872, 1, 1, 1000, 1000
 81853912, 1, 0.001772496, 0.001253166, 0.00118328, -0.00433315, 0.004031751, -9.384073, 0, 0, 29.6872, 1, 1, 760, 800
 81893896, 0, 0.002700318, 0.004354701, 0.001105517, -0.004286015, 0.003082141, -9.325471, 0, 0, 29.68924, 1, 1, 1000, 1000
 81893896, 1, 0.002735128, 0.004441481, 0.0009107683, -0.003477211, 0.003857946, -9.325635, 0, 0, 29.68924, 1, 1, 760, 800
 81933880, 0, 0.001971242, 0.002432644, 0.001064458, -0.005777785, 0.002768032, -9.276301, 0, 0, 29.69128, 1, 1, 1000, 1000
 81933880, 1, 0.002000117, 0.00244511, 0.001027334, -0.006217781, 0.002844974, -9.274213, 0, 0, 29.69128, 1, 1, 760, 800
 81973864, 0, 0.001261717, 0.001231964, 0.001036815, -0.004295777, 0.002954746, -9.235389, 0, 0, 29.69333, 1, 1, 1000, 1000
 81973864, 1, 0.001311626, 0.001180852, 0.001130469, -0.004182588, 0.003122187, -9.236568, 0, 0, 29.69333, 1, 1, 760, 800
 82013848, 0, -6.476203E-06, 0.0001575508, 0.0009532584, -0.004910489, 0.002591586, -9.193803, 0, 0, 29.69537, 1, 1, 1000, 1000
 82013848, 1, -4.160935E-05, 0.0002211016, 0.0008367253, -0.003861425, 0.00397435, -9.192162, 0, 0, 29.69537, 1, 1, 760, 800
 82053832, 0, 0.003743777, 0.003803643, 0.0009821324, -0.004985807, 0.003053305, -9.159529, 0, 0, 29.69741, 1, 1, 1000, 1000
 82053832, 1, 0.003761655, 0.003886316, 0.001043821, -0.002596898, 0.004000107, -9.162024, 0, 0, 29.69736, 1, 1, 760, 800
 82093816, 0, 0.0004872435, 5.257022E-05, 0.0009683265, -0.003904371, 0.002541485, -9.134067, 0, 0, 29.69945, 1, 1, 1000, 1000
 82093816, 1, 0.0004920563, 9.530359E-05, 0.00111741, -0.002814928, 0.002312679, -9.130184, 0, 0, 29.6994, 1, 1, 760, 800
 82133800, 0, 0.00199376, 0.002449684, 0.00108816, -0.004344837, 0.003173736, -9.117191, 0, 0, 29.70149, 1, 1, 1000, 1000
 82133800, 1, 0.001903649, 0.002675947, 0.001054145, -0.003164416, 0.00144306, -9.11762, 0, 0, 29.70144, 1, 1, 760, 800
 82173784, 0, 0.002748594, 0.001894038, 0.001025932, -0.003169776, 0.002679114, -9.102538, 0, 0, 29.70353, 1, 1, 1000, 1000
 82173784, 1, 0.002793331, 0.002108475, 0.001152479, -0.002826135, 0.00248687, -9.103668, 0, 0, 29.70348, 1, 1, 760, 800
 82213768, 0, 0.0008227288, -0.0009513043, 0.00102144, -0.003575898, 0.002047046, -9.08573, 0, 0, 29.70557, 1, 1, 1000, 1000
 82213768, 1, 0.0007173584, -0.0007744515, 0.000893358, -0.005883549, 0.003767591, -9.087728, 0, 0, 29.70552, 1, 1, 760, 800
 82253752, 0, 0.0006703837, -0.0008123412, 0.001058777, -0.003847441, 0.001505386, -9.068096, 0, 0, 29.70761, 1, 1, 1000, 1000
 82253752, 1, 0.0006539921, -0.0007475503, 0.0009759659, -0.004820976, 0.002600172, -9.067752, 0, 0, 29.70755, 1, 1, 760, 800
 82293736, 0, 0.001006596, 0.002831112, 0.001024695, -0.00316868, 0.001264947, -9.059763, 0, 0, 29.70964, 1, 1, 1000, 1000
 82293736, 1, 0.0008011428, 0.002802501, 0.001257519, -0.004297308, 0.0009372301, -9.056789, 0, 0, 29.70959, 1, 1, 760, 800
 82333720, 0, 0.0009784497, 0.001051137, 0.001037872, -0.003648159, 0.002781716, -9.064169, 0, 0, 29.71168, 1, 1, 1000, 1000
 82333720, 1, 0.000950809, 0.001096312, 0.0009033498, -0.005987884, 0.001486994, -9.066012, 0, 0, 29.71163, 1, 1, 760, 800
 82373704, 0, 0.003251416, 0.00280505, 0.0009535202, -0.002781606, 0.001438318, -9.05029, 0, 0, 29.71372, 1, 1, 1000, 1000
 82373704, 1, 0.003117073, 0.002751187, 0.001035821, -0.001803826, 0.002014149, -9.049802, 0, 0, 29.71367, 1, 1, 760, 800
 82413688, 0, 0.002795073, 0.003042334, 0.0009715295, -0.003787385, 0.00161776, -9.05814, 0, 0, 29.71576, 1, 1, 1000, 1000
 82413688, 1, 0.002831403, 0.00306255, 0.0008118256, -0.00141324, 0.001152723, -9.059231, 0, 0, 29.71571, 1, 1, 760, 800
 82453672, 0, 0.002763083, 0.002907404, 0.001005275, -0.002202168, 0.001150687, -9.07184, 0, 0, 29.7178, 1, 1, 1000, 1000
 82453672, 1, 0.002785639, 0.002955967, 0.0009462518, -0.003046698, -0.0008125795, -9.074001, 0, 0, 29.71775, 1, 1, 760, 800
 82493656, 0, 0.00214667, 0.002463973, 0.0008148082, -0.002070935, 0.002021548, -9.058499, 0, 0, 29.71984, 1, 1, 1000, 1000
 82493656, 1, 0.002085034, 0.002490344, 0.000789844, -0.0011786, 0.002705939, -9.059933, 0, 0, 29.71978, 1, 1, 760, 800
 82533640, 0, 0.002754696, -2.829208E-05, 0.0007843542, -0.0008492086, 0.0007683517, -9.067031, 0, 0, 29.72187, 1, 1, 1000, 1000
 82533640, 1, 0.002630285, -7.960429E-06, 0.0007834807, -0.002341445, 0.001130734, -9.065208, 0, 0, 29.72182, 1, 1, 760, 800
 82573624, 0, 0.002680617, 8.586929E-05, 0.0006726823, -0.001488657, 0.0006801594, -9.080659, 0, 0, 29.72391, 1, 1, 1000, 1000
 82573624, 1, 0.002472447, -7.438236E-05, 0.0007302608, -0.0009831754, 0.001303409, -9.079991, 0, 0, 29.72386, 1, 1, 760, 800
 82613608, 0, 0.002687174, 0.0001449168, 0.0006865339, -0.002631237, 0.00152773, -9.093164, 0, 0, 29.72594, 1, 1, 1000, 1000
 82613608, 1, 0.002608163, 0.0002166622, 0.0006619447, -0.001073805, 0.0008606659, -9.092657, 0, 0, 29.72589, 1, 1, 760, 800
 82653592, 0, 0.0006965038, 0.0001626466, 0.0006750213, -0.0005127112, -0.0003366178, -9.104954, 0, 0, 29.72798, 1, 1, 1000, 1000
 82653592, 1, 0.0004776608, 0.0002563379, 0.0006011474, -0.001039111, -0.0009867492, -9.106349, 0, 0, 29.72793, 1, 1, 760, 800
 82693576, 0, 0.000775989, 0.0001313342, 0.000623489, -0.0006514624, 0.0001351096, -9.117912, 0, 0, 29.73002, 1, 1, 1000, 1000
 82693576, 1, 0.0007303505, 0.0002282651, 0.0006370401, -0.003552146, 0.001227739, -9.116221, 0, 0, 29.72997, 1, 1, 760, 800
 82733560, 0, -0.003373123, -0.0001112392, 0.0006362456, -0.001660533, -0.0008806163, -9.11414, 0, 0, 29.73206, 1, 1, 1000, 1000
 82733560, 1, -0.00344751, -0.0002099573, 0.000641042, -0.0002413498, -0.00157409, -9.113407, 0, 0, 29.732, 1, 1, 760, 800
 82773544, 0, -0.004792764, -0.0007941005, 0.000502035, -0.001346287, -0.0008039364, -9.126038, 0, 0, 29.73409, 1, 1, 1000, 1000
 82773544, 1, -0.004810927, -0.0007572224, 0.0006235269, 0.0003544248, 0.0004062536, -9.125411, 0, 0, 29.73404, 1, 1, 760, 800
 82813528, 0, -0.005496103, -0.002286017, 0.000576171, -0.001640426, -0.0005184948, -9.13895, 0, 0, 29.73613, 1, 1, 1000, 1000
 82813528, 1, -0.005602652, -0.001998087, 0.0005277742, -0.001117309, 0.0001049136, -9.142038, 0, 0, 29.73607, 1, 1, 760, 800
 82853512, 0, -0.003346064, -0.0003575133, 0.0004849079, 0.000498806, -0.0007862631, -9.151185, 0, 0, 29.73816, 1, 1, 1000, 1000
 82853512, 1, -0.003391231, -0.0004222483, 0.0005279109, 0.0005340669, -0.0031508, -9.151299, 0, 0, 29.73811, 1, 1, 760, 800
 82893496, 0, -0.001270996, 0.0003542953, 0.0004593272, -9.282259E-05, -0.0005479086, -9.162653, 0, 0, 29.7402, 1, 1, 1000, 1000
 82893496, 1, -0.001267365, 0.0003619243, 0.0005818553, -0.0004037615, -0.002229379, -9.162548, 0, 0, 29.74014, 1, 1, 760, 800
 82933480, 0, 0.0002409938, 0.001958338, 0.0005168332, -0.0001964555, -0.0006004513, -9.173046, 0, 0, 29.74223, 1, 1, 1000, 1000
 82933480, 1, 0.0004736926, 0.002112294, 0.0006191644, -0.0003206788, -0.0005661752, -9.171357, 0, 0, 29.74218, 1, 1, 760, 800
 82973464, 0, 0.001743561, 0.002505048, 0.0005012762, 0.0008001243, -0.001000814, -9.183146, 0, 0, 29.74426, 1, 1, 1000, 1000
 82973464, 1, 0.00188088, 0.002555236, 0.0005385726, -0.0002138253, 0.001810891, -9.1817, 0, 0, 29.74426, 1, 1, 760, 800
 83013448, 0, 0.000769436, 0.001687921, 0.0004894732, 2.3064E-05, 0.0008684564, -9.191568, 0, 0, 29.7463, 1, 1, 1000, 1000
 83013448, 1, 0.000823313, 0.001957684, 0.0005205458, -0.0001419432, -0.002443673, -9.19236, 0, 0, 29.7463, 1, 1, 760, 800
 83053432, 0, 0.002347124, 0.0028305, 0.0004100984, -0.0009024913, -0.001449595, -9.200184, 0, 0, 29.74833, 1, 1, 1000, 1000
 83053432, 1, 0.002291434, 0.002980751, 0.0004572468, -0.0004016967, 0.001678624, -9.199071, 0, 0, 29.74833, 1, 1, 760, 800
 83093416, 0, 0.002809803, 0.0013899, 0.000491961, 0.0003211104, -0.0008717179, -9.210629, 0, 0, 29.75037, 1, 1, 1000, 1000
 83093416, 1, 0.002379933, 0.001329968, 0.0004956448, -0.0008606523, -0.002699681, -9.211072, 0, 0, 29.75037, 1, 1, 760, 800
 83133400, 0, 0.001416292, -8.248213E-05, 0.0005417278, 0.001030107, -0.001758239, -9.221211, 0, 0, 29.7524, 1, 1, 1000, 1000
 83133400, 1, 0.001394963, -6.142426E-05, 0.0005543796, 0.001089654, -0.001577009, -9.220548, 0, 0, 29.7524, 1, 1, 760, 800
 83173384, 0, -7.985401E-05, -0.002332056, 0.000550643, -0.0006505747, 0.0002110351, -9.228971, 0, 0, 29.75443, 1, 1, 1000, 1000
 83173384, 1, -0.0001760477, -0.002357907, 0.0004300648, 0.0005142103, -0.001669151, -9.228784, 0, 0, 29.75443, 1, 1, 760, 800
 83213368, 0, -0.001466424, -0.0038025, 0.0005800426, -0.0002692006, -0.002296899, -9.237908, 0, 0, 29.75646, 1, 1, 1000, 1000
 83213368, 1, -0.001734171, -0.003813365, 0.0003874217, 0.0002646631, -0.002153685, -9.235618, 0, 0, 29.75646, 1, 1, 760, 800
 83253352, 0, -0.001016053, 0.00154207, 0.0006506681, 0.001510496, -0.0002369625, -9.239483, 0, 0, 29.7585, 1, 1, 1000, 1000
 83253352, 1, -0.001072198, 0.001665121, 0.0007481942, 0.0009895165, -0.001246268, -9.241654, 0, 0, 29.7585, 1, 1, 760, 800
 83293336, 0, -0.0002116519, 0.001315265, 0.0008871723, 0.001788811, -0.001024523, -9.2492, 0, 0, 29.76053, 1, 1, 1000, 1000
 83293336, 1, -0.00028298, 0.001181336, 0.0008910805, 0.001975318, -0.001322639, -9.248806, 0, 0, 29.76053, 1, 1, 760, 800
 83333320, 0, -0.0002667319, 0.001369813, 0.00119488, 0.001351895, -0.001315763, -9.258206, 0, 0, 29.76256, 1, 1, 1000, 1000
 83333320, 1, -0.0002370906, 0.001477545, 0.001131277, 0.001685907, -0.001152159, -9.257237, 0, 0, 29.76256, 1, 1, 760, 800
 83373304, 0, -0.001362577, -0.0001730425, 0.00138905, 0.002071038, -0.001475483, -9.266676, 0, 0, 29.76459, 1, 1, 1000, 1000
 83373304, 1, -0.001194701, 2.043675E-05, 0.001603544, 0.005026116, -0.002155345, -9.264904, 0, 0, 29.76459, 1, 1, 760, 800
 83413288, 0, 0.0007932306, -0.0005799102, 0.001464018, 5.925485E-05, -0.001438202, -9.270876, 0, 0, 29.76662, 1, 1, 1000, 1000
 83413288, 1, 0.0008253729, -0.0004061846, 0.001557951, 0.002269032, -0.0008629034, -9.269634, 0, 0, 29.76662, 1, 1, 760, 800
 83453272, 0, 0.0003827886, -0.0005199104, 0.001457128, 0.002317716, -0.001144575, -9.277857, 0, 0, 29.76865, 1, 1, 1000, 1000
 83453272, 1, 0.0001342902, -0.0003872732, 0.001646257, 0.0002672815, -0.003140648, -9.278267, 0, 0, 29.76865, 1, 1, 760, 800
 83494089, 0, 0.0004027745, -0.0005301545, 0.00144508, 0.001927084, -0.002075921, -9.286034, 0, 0, 29.77068, 1, 1, 1000, 1000
 83494089, 1, 0.0004266685, -0.0003240426, 0.001443231, 0.003551139, -0.002130784, -9.287233, 0, 0, 29.77073, 1, 1, 760, 800
 83534073, 0, 0.0004838448, -0.0004434132, 0.001533347, 0.001910398, -0.001415245, -9.29434, 0, 0, 29.77271, 1, 1, 1000, 1000
 83534073, 1, 0.0005154033, -0.0005257976, 0.00163538, 0.00294949, -0.003055505, -9.29286, 0, 0, 29.77277, 1, 1, 760, 800
 83574057, 0, 0.0004573096, -0.0006448521, 0.001577567, 0.002406025, -0.002527037, -9.301114, 0, 0, 29.77474, 1, 1, 1000, 1000
 83574057, 1, 0.0004942191, -0.0005732384, 0.001336521, 0.003571104, -0.00422838, -9.299026, 0, 0, 29.7748, 1, 1, 760, 800
 83614041, 0, -0.0005834978, -0.0008514837, 0.001287195, 0.002967548, -0.002347364, -9.283747, 0, 0, 29.77678, 1, 1, 1000, 1000
 83614041, 1, -0.0006043977, -0.0009514003, 0.001454647, 0.00172628, -0.001722828, -9.283461, 0, 0, 29.77682, 1, 1, 760, 800
 83654025, 0, 0.0008207514, 0.002255708, 0.001042455, 0.001674377, -0.002133106, -9.292993, 0, 0, 29.7788, 1, 1, 1000, 1000
 83654025, 1, 0.0009261922, 0.002358068, 0.001032785, 0.002403128, -0.00411736, -9.292363, 0, 0, 29.77885, 1, 1, 760, 800
 83694009, 0, 0.001466204, 0.002848991, 0.0008430412, 0.002369437, -0.001863493, -9.297093, 0, 0, 29.78083, 1, 1, 1000, 1000
 83694009, 1, 0.001517078, 0.002841524, 0.0007784365, 0.002623449, -0.002576701, -9.294989, 0, 0, 29.78088, 1, 1, 760, 800
 83733993, 0, 0.001458764, 0.0005713076, 0.0008252505, 0.002577458, -0.00230731, -9.299932, 0, 0, 29.78286, 1, 1, 1000, 1000
 83733993, 1, 0.001344497, 0.0006009752, 0.0008761891, 0.002268611, -0.003302923, -9.303352, 0, 0, 29.78286, 1, 1, 760, 800
 83773977, 0, 0.001457006, 0.0006246786, 0.0007480077, 0.002554493, -0.002836429, -9.30833, 0, 0, 29.78489, 1, 1, 1000, 1000
 83773977, 1, 0.001389102, 0.0008137976, 0.0006077033, 0.004435562, -0.002483546, -9.307883, 0, 0, 29.78489, 1, 1, 760, 800
 83813961, 0, 0.000878847, -0.0004307091, 0.0008229224, 0.00142556, -0.002309612, -9.30953, 0, 0, 29.78692, 1, 1, 1000, 1000
 83813961, 1, 0.000599737, -0.0003298225, 0.0008829677, 0.001426722, -0.003055394, -9.309048, 0, 0, 29.78692, 1, 1, 760, 800
 83853945, 0, 0.001083778, 0.0024671, 0.0007412873, 0.001728878, -0.003377284, -9.301435, 0, 0, 29.78895, 1, 1, 1000, 1000
 83853945, 1, 0.001284355, 0.002416985, 0.0005648555, 0.003129709, -0.003251557, -9.304848, 0, 0, 29.78895, 1, 1, 760, 800
 83893929, 0, 0.002959694, 0.002158976, 0.0006948762, 0.002333666, -0.001705335, -9.302775, 0, 0, 29.79098, 1, 1, 1000, 1000
 83893929, 1, 0.002992983, 0.002287181, 0.000680402, -0.0003302746, -0.00547418, -9.304887, 0, 0, 29.79098, 1, 1, 760, 800
 83933913, 0, 0.0004394385, 0.002584938, 0.0008106375, 0.002977828, -0.002517672, -9.30497, 0, 0, 29.793, 1, 1, 1000, 1000
 83933913, 1, 0.0003253321, 0.002493251, 0.0007099472, 0.00048663, -0.001169699, -9.304713, 0, 0, 29.793, 1, 1, 760, 800
 83973897, 0, 0.0005083433, 0.00249308, 0.0007652297, 0.002926962, -0.00279105, -9.311698, 0, 0, 29.79503, 1, 1, 1000, 1000
 83973897, 1, 0.0005864373, 0.002469979, 0.0008920043, 0.002334788, -0.001587134, -9.313742, 0, 0, 29.79503, 1, 1, 760, 800
 84013881, 0, -0.0006951418, -0.00145757, 0.0008806556, 0.002458882, -0.002470044, -9.315271, 0, 0, 29.79706, 1, 1, 1000, 1000
 84013881, 1, -0.0006410809, -0.001337023, 0.0008458645, 0.001114479, -0.001295714, -9.315927, 0, 0, 29.79706, 1, 1, 760, 800
 84053865, 0, 0.000156018, 0.0003456777, 0.0008970503, 0.002828379, -0.002729049, -9.301893, 0, 0, 29.79909, 1, 1, 1000, 1000
 84053865, 1, 0.0002559681, 2.652493E-05, 0.0008835769, 0.004356571, -0.003018978, -9.300533, 0, 0, 29.79909, 1, 1, 760, 800
 84093849, 0, -0.0003953358, 0.001715999, 0.0009214508, 0.00294134, -0.003399163, -9.302705, 0, 0, 29.80111, 1, 1, 1000, 1000
 84093849, 1, -0.0003853405, 0.001817312, 0.0007857408, 0.002209209, -0.003352443, -9.301923, 0, 0, 29.80111, 1, 1, 760, 800
 84133833, 0, -0.0003554106, 0.00167423, 0.0008636576, 0.001615922, -0.002980467, -9.309259, 0, 0, 29.80314, 1, 1, 1000, 1000
 84133833, 1, -0.0003576028, 0.001852893, 0.0008425319, 0.004586826, -0.003562408, -9.310532, 0, 0, 29.80314, 1, 1, 760, 800
 84173817, 0, -0.0003160487, 0.001081785, 0.0008698737, 0.002995158, -0.002727705, -9.312193, 0, 0, 29.80516, 1, 1, 1000, 1000
 84173817, 1, -0.0002145215, 0.0008653211, 0.0009278089, 0.001168037, -0.0006571213, -9.315277, 0, 0, 29.80511, 1, 1, 760, 800
 84213801, 0, -0.0008737458, -0.0006680589, 0.0009000301, 0.002925631, -0.001174704, -9.304982, 0, 0, 29.80719, 1, 1, 1000, 1000
 84213801, 1, -0.0007812617, -0.0006931374, 0.0008284432, 0.003026821, -0.003253532, -9.302242, 0, 0, 29.80714, 1, 1, 760, 800
 84253785, 0, 0.003663745, -0.001542147, 0.0008184605, 0.00331722, -0.003972786, -9.298569, 0, 0, 29.80922, 1, 1, 1000, 1000
 84253785, 1, 0.003803345, -0.001593173, 0.0006922645, 0.001412935, -0.001112539, -9.29839, 0, 0, 29.80917, 1, 1, 760, 800
 84293769, 0, 0.003441508, -0.001069321, 0.0008367181, 0.00286282, -0.002567399, -9.305196, 0, 0, 29.81124, 1, 1, 1000, 1000
 84293769, 1, 0.003408227, -0.0009876823, 0.0008733021, 0.001710866, -0.001963165, -9.305237, 0, 0, 29.81119, 1, 1, 760, 800
 84333753, 0, 0.003433029, -0.001021795, 0.0007840046, 0.002989878, -0.002723412, -9.311741, 0, 0, 29.81327, 1, 1, 1000, 1000
 84333753, 1, 0.003314613, -0.001149576, 0.0009288097, 0.004763799, -0.003102004, -9.313128, 0, 0, 29.81322, 1, 1, 760, 800
 84373737, 0, 0.002329894, -0.001267612, 0.0007860629, 0.002646799, -0.003174095, -9.294808, 0, 0, 29.81529, 1, 1, 1000, 1000
 84373737, 1, 0.002522347, -0.001248939, 0.0008289362, 0.001877069, -0.0009462395, -9.295994, 0, 0, 29.81524, 1, 1, 760, 800
 84413721, 0, -0.001512622, -0.00395031, 0.0007880794, 0.002145433, -0.002668566, -9.291986, 0, 0, 29.81731, 1, 1, 1000, 1000
 84413721, 1, -0.001474485, -0.003876813, 0.0007835003, 0.002857066, -0.001128717, -9.293731, 0, 0, 29.81726, 1, 1, 760, 800
 84453705, 0, -0.001277539, -0.003724541, 0.0008083639, 0.0039242, -0.002696877, -9.299137, 0, 0, 29.81934, 1, 1, 1000, 1000
 84453705, 1, -0.001366747, -0.00362038, 0.0007546647, 0.003404367, -0.003367208, -9.300912, 0, 0, 29.81929, 1, 1, 760, 800
 84493689, 0, -0.001304223, -0.003055002, 0.0008335912, 0.002920221, -0.002273065, -9.304461, 0, 0, 29.82136, 1, 1, 1000, 1000
 84493689, 1, -0.001192137, -0.003017649, 0.0007945714, 0.003295457, -0.003996933, -9.304936, 0, 0, 29.82131, 1, 1, 760, 800
 84533673, 0, -0.0006535245, -0.0005784737, 0.0007928422, 0.001863549, -0.003366514, -9.295529, 0, 0, 29.82339, 1, 1, 1000, 1000
 84533673, 1, -0.0005409516, -0.0005444689, 0.0008493159, 0.003844536, -0.002195262, -9.296848, 0, 0, 29.82334, 1, 1, 760, 800
 84573657, 0, 0.003696167, -0.0002968907, 0.0007903791, 0.001510145, -0.003456786, -9.290407, 0, 0, 29.82541, 1, 1, 1000, 1000
 84573657, 1, 0.00367119, -0.0002253938, 0.0008957366, 0.001424488, -0.0005102577, -9.291649, 0, 0, 29.82536, 1, 1, 760, 800
 84613641, 0, 0.003450172, 0.002089826, 0.000666382, 0.002395235, -0.001935586, -9.293939, 0, 0, 29.82743, 1, 1, 1000, 1000
 84613641, 1, 0.003508767, 0.002157878, 0.0006212915, 0.0032391, -0.003377239, -9.292314, 0, 0, 29.82738, 1, 1, 760, 800
 84653625, 0, 0.003418364, 0.002104233, 0.0007402276, 0.003337539, -0.002278096, -9.301156, 0, 0, 29.82946, 1, 1, 1000, 1000
 84653625, 1, 0.003428511, 0.002005777, 0.0008142487, 0.003820303, -0.003266916, -9.304629, 0, 0, 29.82941, 1, 1, 760, 800
 84693609, 0, 0.003182193, 0.002147348, 0.0005721465, 0.003203208, -0.002379205, -9.284784, 0, 0, 29.83148, 1, 1, 1000, 1000
 84693609, 1, 0.002965507, 0.002374363, 0.000466029, 0.003064339, -0.003565314, -9.286537, 0, 0, 29.83143, 1, 1, 760, 800
 84733593, 0, -0.0005610195, 0.001055761, 0.0006591933, 0.002275693, -0.003207169, -9.28124, 0, 0, 29.8335, 1, 1, 1000, 1000
 84733593, 1, -0.0004594041, 0.001018605, 0.000826841, 0.001726634, -0.001216986, -9.282968, 0, 0, 29.83345, 1, 1, 760, 800
 84773577, 0, -0.0003745239, 0.00108808, 0.0006318765, 0.001944628, -0.002293091, -9.289125, 0, 0, 29.83552, 1, 1, 1000, 1000
 84773577, 1, -0.0003803108, 0.00101326, 0.0007171902, 0.002900904, -0.003035307, -9.287953, 0, 0, 29.83547, 1, 1, 760, 800
 84813561, 0, -0.0003269583, 0.00105418, 0.0006470503, 0.003054991, -0.003629026, -9.295826, 0, 0, 29.83755, 1, 1, 1000, 1000
 84813561, 1, -0.0005034565, 0.001012325, 0.0005307093, 0.004768176, -0.001229694, -9.295159, 0, 0, 29.83749, 1, 1, 760, 800
 84853545, 0, 0.001583829, 0.000786034, 0.0006348692, 0.002769422, -0.002745742, -9.277279, 0, 0, 29.83957, 1, 1, 1000, 1000
 84853545, 1, 0.001548392, 0.0009142915, 0.0006157896, 0.00369192, -0.002535291, -9.27887, 0, 0, 29.83952, 1, 1, 760, 800
 84893529, 0, 0.002549325, 0.0001818431, 0.0005521224, 0.002587609, -0.003751602, -9.276359, 0, 0, 29.84159, 1, 1, 1000, 1000
 84893529, 1, 0.002616266, 0.0001412745, 0.0003983159, 0.000812323, -0.001986022, -9.273197, 0, 0, 29.84154, 1, 1, 760, 800
 84933513, 0, 0.002497647, 0.0001712311, 0.0005442145, 0.002223239, -0.003040636, -9.282135, 0, 0, 29.84361, 1, 1, 1000, 1000
 84933513, 1, 0.002368954, 0.000104232, 0.0005522269, 0.002314205, -0.00474917, -9.282164, 0, 0, 29.84356, 1, 1, 760, 800
 84973497, 0, -0.0004226203, -0.001443074, 0.0005537066, 0.003039452, -0.001822988, -9.276853, 0, 0, 29.84563, 1, 1, 1000, 1000
 84973497, 1, -0.0004823291, -0.001388405, 0.0003283519, 0.0007247482, -0.002523077, -9.27671, 0, 0, 29.84558, 1, 1, 760, 800
 85013481, 0, -0.0007345334, -0.0006543433, 0.0005013629, 0.002392102, -0.002164989, -9.270852, 0, 0, 29.84765, 1, 1, 1000, 1000
 85013481, 1, -0.0008315773, -0.0002813531, 0.0004444168, 0.003024583, -0.003267153, -9.272564, 0, 0, 29.8476, 1, 1, 760, 800
 85053465, 0, -0.002236002, -0.002700584, 0.0004428219, 0.002391613, -0.002040849, -9.270042, 0, 0, 29.84967, 1, 1, 1000, 1000
 85053465, 1, -0.002188787, -0.002709394, 0.0006622054, 0.002873442, -0.003252622, -9.269329, 0, 0, 29.84967, 1, 1, 760, 800
 85093449, 0, -0.002180205, -0.002040947, 0.0004946101, 0.001863459, -0.002509449, -9.274219, 0, 0, 29.85169, 1, 1, 1000, 1000
 85093449, 1, -0.002142418, -0.002086199, 0.0005542511, 0.001814167, -0.002716719, -9.275413, 0, 0, 29.85169, 1, 1, 760, 800
 85133433, 0, -0.0009571093, -0.00139564, 0.0004233135, 0.002194009, -0.003436789, -9.25843, 0, 0, 29.85371, 1, 1, 1000, 1000
 85133433, 1, -0.0007806117, -0.001108812, 0.0004746047, 0.001934334, -0.0003211408, -9.257914, 0, 0, 29.85371, 1, 1, 760, 800
 85173417, 0, 0.001777746, -0.002562111, 0.0005295223, 0.002474437, -0.002960857, -9.255742, 0, 0, 29.85573, 1, 1, 1000, 1000
 85173417, 1, 0.001868709, -0.002431228, 0.0003920889, 0.001871699, -0.002625172, -9.256289, 0, 0, 29.85573, 1, 1, 760, 800
 85213401, 0, 0.001582003, -0.002446305, 0.0005871219, 0.001961378, -0.002229649, -9.262079, 0, 0, 29.85775, 1, 1, 1000, 1000
 85213401, 1, 0.001510544, -0.002312227, 0.0005211545, 0.002099073, -0.00235949, -9.262632, 0, 0, 29.85775, 1, 1, 760, 800
 85253385, 0, 0.001597067, 0.001881305, 0.0006853369, 0.001428449, -0.002847712, -9.262506, 0, 0, 29.85977, 1, 1, 1000, 1000
 85253385, 1, 0.001579952, 0.002069267, 0.0009928313, 0.00175644, 5.462861E-05, -9.261925, 0, 0, 29.85977, 1, 1, 760, 800
 85293369, 0, -0.0002731885, 0.002995906, 0.0005913265, 0.001129207, -0.003143228, -9.244613, 0, 0, 29.86179, 1, 1, 1000, 1000
 85293369, 1, -0.0002588062, 0.00320692, 0.0004858998, 0.00201082, -0.003804835, -9.24479, 0, 0, 29.86179, 1, 1, 760, 800
 85333353, 0, -0.000213871, 0.003231033, 0.000580603, 0.0006933938, -0.00172684, -9.250752, 0, 0, 29.8638, 1, 1, 1000, 1000
 85333353, 1, -0.0002846324, 0.003052008, 0.0005685873, -0.00116056, -0.004891072, -9.249187, 0, 0, 29.8638, 1, 1, 760, 800
 85373337, 0, -0.0002424961, 0.003047392, 0.0006035531, 0.0006412782, -0.003230446, -9.255242, 0, 0, 29.86582, 1, 1, 1000, 1000
 85373337, 1, -0.0002206616, 0.003110771, 0.0007248098, 0.003290043, -0.00329545, -9.256008, 0, 0, 29.86582, 1, 1, 760, 800
 85413321, 0, 0.002690094, 0.00114079, 0.0006902579, 0.0004426568, -0.002351345, -9.233021, 0, 0, 29.86784, 1, 1, 1000, 1000
 85413321, 1, 0.002768831, 0.001152561, 0.0005643401, 7.515129E-05, -0.002139611, -9.232342, 0, 0, 29.86784, 1, 1, 760, 800
 85453305, 0, 0.002606328, 0.0002887658, 0.0006175069, 0.0008216194, -0.002828841, -9.236624, 0, 0, 29.86986, 1, 1, 1000, 1000
 85453305, 1, 0.00255402, 0.0002928373, 0.0005826007, 0.00120414, -0.003923909, -9.236584, 0, 0, 29.86986, 1, 1, 760, 800
 85493289, 0, 0.002549154, 0.0003488474, 0.0005910354, 0.001248697, -0.003431229, -9.241201, 0, 0, 29.87188, 1, 1, 1000, 1000
 85493289, 1, 0.002547986, 0.0002535172, 0.0006133859, 0.0006365689, -0.003711195, -9.243499, 0, 0, 29.87188, 1, 1, 760, 800
 85533273, 0, 0.002325574, 0.002269645, 0.0006212172, 9.520137E-05, -0.003836332, -9.217562, 0, 0, 29.87389, 1, 1, 1000, 1000
 85533273, 1, 0.002551671, 0.002492202, 0.0006011168, -0.001647124, -0.001757597, -9.216084, 0, 0, 29.87389, 1, 1, 760, 800
 85574090, 0, 0.002636293, 0.002267351, 0.0007015985, 0.0001455422, -0.003939213, -9.223562, 0, 0, 29.87591, 1, 1, 1000, 1000
 85574090, 1, 0.002730425, 0.002279307, 0.0007263584, 0.00246965, -0.001277657, -9.22271, 0, 0, 29.87596, 1, 1, 760, 800
 85614074, 0, -0.0001698187, -0.001832558, 0.0007554683, -0.0004689903, -0.002323305, -9.210557, 0, 0, 29.87793, 1, 1, 1000, 1000
 85614074, 1, -8.244118E-05, -0.001803368, 0.0006134456, 0.0005324387, -0.004124244, -9.209003, 0, 0, 29.87798, 1, 1, 760, 800
 85654058, 0, 0.001776501, 0.002410095, 0.0006502447, 0.0005597704, -0.003368707, -9.203366, 0, 0, 29.87994, 1, 1, 1000, 1000
 85654058, 1, 0.001760045, 0.002357546, 0.0006036945, -0.0001620987, -0.002017272, -9.205525, 0, 0, 29.87999, 1, 1, 760, 800
 85694042, 0, -0.0006143595, -0.0002143377, 0.00074272, 0.0001825217, -0.002849175, -9.183951, 0, 0, 29.88196, 1, 1, 1000, 1000
 85694042, 1, -0.0006888762, -0.0001916734, 0.0005403216, -2.156694E-06, -0.004947686, -9.183539, 0, 0, 29.88201, 1, 1, 760, 800
 85734026, 0, -0.001161298, -0.0005645386, 0.0007067895, -8.395994E-05, -0.003441455, -9.184503, 0, 0, 29.88397, 1, 1, 1000, 1000
 85734026, 1, -0.001242364, -0.0005656601, 0.0006613331, -0.0008397552, 0.0008085779, -9.185011, 0, 0, 29.88402, 1, 1, 760, 800
 85774010, 0, 0.001655956, 0.002319774, 0.0007695763, -0.0002784506, -0.00189539, -9.15885, 0, 0, 29.88599, 1, 1, 1000, 1000
 85774010, 1, 0.001686768, 0.00228466, 0.0008797502, -0.0006201694, -0.004010091, -9.159008, 0, 0, 29.88604, 1, 1, 760, 800
 85813994, 0, -0.002954693, -0.0009093995, 0.0007647496, -0.000308619, -0.002599071, -9.139441, 0, 0, 29.888, 1, 1, 1000, 1000
 85813994, 1, -0.003108597, -0.0007522542, 0.0008364508, 0.002484783, -0.002468708, -9.140962, 0, 0, 29.888, 1, 1, 760, 800
 85853978, 0, 0.0002007222, 0.0001019143, 0.000693633, -0.0007830368, -0.003117752, -9.131124, 0, 0, 29.89002, 1, 1, 1000, 1000
 85853978, 1, 0.0001187049, 0.0001166477, 0.000493751, -0.0008921277, -0.002666229, -9.127736, 0, 0, 29.89002, 1, 1, 760, 800
 85893962, 0, 5.392041E-05, -0.001546547, 0.0007493045, 8.301608E-05, -0.001886054, -9.115741, 0, 0, 29.89203, 1, 1, 1000, 1000
 85893962, 1, 9.817421E-06, -0.001391173, 0.0006674551, -0.0006802877, -0.00279243, -9.116376, 0, 0, 29.89203, 1, 1, 760, 800
 85933946, 0, 0.0008082887, -0.00143994, 0.0007273151, -0.0001744417, -0.00267572, -9.119911, 0, 0, 29.89405, 1, 1, 1000, 1000
 85933946, 1, 0.0008337091, -0.001616139, 0.0007370508, -0.001508678, -0.004484141, -9.122001, 0, 0, 29.89405, 1, 1, 760, 800
 85973930, 0, 0.0007139481, -0.001402772, 0.0007790771, 0.000406356, -0.001538323, -9.125932, 0, 0, 29.89606, 1, 1, 1000, 1000
 85973930, 1, 0.0007715116, -0.001146266, 0.0007493566, -0.0004232798, -0.00206471, -9.127576, 0, 0, 29.89606, 1, 1, 760, 800
 86013914, 0, 0.0007836813, 0.001452205, 0.0008409231, -1.526628E-05, -0.001283785, -9.136166, 0, 0, 29.89808, 1, 1, 1000, 1000
 86013914, 1, 0.0008643015, 0.001526976, 0.0009225165, -0.00262382, -0.0006025679, -9.134579, 0, 0, 29.89808, 1, 1, 760, 800
 86053898, 0, 0.001725992, 0.006297111, 0.0008281885, -0.00136849, -0.002724114, -9.173869, 0, 0, 29.90009, 1, 1, 1000, 1000
 86053898, 1, 0.00189502, 0.006393731, 0.0009555642, -0.002067706, -0.00104733, -9.172175, 0, 0, 29.90009, 1, 1, 760, 800
 86093882, 0, 0.001725994, 0.006134461, 0.0007652231, -0.000602051, -0.003257649, -9.186992, 0, 0, 29.9021, 1, 1, 1000, 1000
 86093882, 1, 0.001889357, 0.006085209, 0.000923396, -0.002077172, -0.002595118, -9.183161, 0, 0, 29.9021, 1, 1, 760, 800
 86133866, 0, 0.001429651, 0.005881318, 0.0008212669, -0.001886184, -0.002142434, -9.223567, 0, 0, 29.90411, 1, 1, 1000, 1000
 86133866, 1, 0.001538597, 0.0060593, 0.0007783168, -0.001528383, -0.002111948, -9.225855, 0, 0, 29.90411, 1, 1, 760, 800
 86173850, 0, 0.0006468785, 0.002016874, 0.0008390971, -0.001832752, -0.002017273, -9.267761, 0, 0, 29.90613, 1, 1, 1000, 1000
 86173850, 1, 0.0008633108, 0.002128077, 0.0007575773, -0.001146521, -0.001917162, -9.269394, 0, 0, 29.90613, 1, 1, 760, 800
 86213834, 0, 0.0002585137, 0.001304649, 0.0008723147, -0.001756369, -0.002151432, -9.313654, 0, 0, 29.90814, 1, 1, 1000, 1000
 86213834, 1, 0.0001843555, 0.001394892, 0.0008669985, -0.002560924, -0.001856952, -9.313668, 0, 0, 29.90814, 1, 1, 760, 800
 86253818, 0, 0.002075301, 0.003506649, 0.0008072376, -0.0007481588, -0.001649603, -9.359695, 0, 0, 29.91015, 1, 1, 1000, 1000
 86253818, 1, 0.002062921, 0.003366309, 0.0006931839, -0.002160256, -0.005824428, -9.359936, 0, 0, 29.9101, 1, 1, 760, 800
 86293802, 0, -0.001943553, 0.003392553, 0.0008368662, -0.0003556651, -0.001411181, -9.399364, 0, 0, 29.91216, 1, 1, 1000, 1000
 86293802, 1, -0.002070644, 0.003516175, 0.0006188725, -0.002152999, -0.00159594, -9.397806, 0, 0, 29.91211, 1, 1, 760, 800
 86333786, 0, 0.001780646, 0.0004539738, 0.000931031, -0.00199759, -0.001462087, -9.445246, 0, 0, 29.91417, 1, 1, 1000, 1000
 86333786, 1, 0.001927907, 0.0003679557, 0.0008177159, -0.0003199281, -0.002590985, -9.446064, 0, 0, 29.91412, 1, 1, 760, 800
 86373770, 0, 0.001703156, 0.0006811036, 0.00101104, -0.00242254, -0.00123631, -9.498337, 0, 0, 29.91619, 1, 1, 1000, 1000
 86373770, 1, 0.001794195, 0.0007312534, 0.00100728, -0.003313988, -0.002244965, -9.49921, 0, 0, 29.91613, 1, 1, 760, 800
 86413754, 0, -0.003945366, 0.003965428, 0.001065911, -0.002040389, -0.0003339889, -9.542417, 0, 0, 29.9182, 1, 1, 1000, 1000
 86413754, 1, -0.003955954, 0.004087274, 0.0009885503, -0.004719598, -0.00246118, -9.542461, 0, 0, 29.91815, 1, 1, 760, 800
 86453738, 0, 0.002662245, -0.000720507, 0.001044897, -0.002285819, -0.001548457, -9.582422, 0, 0, 29.92021, 1, 1, 1000, 1000
 86453738, 1, 0.002812779, -0.0007825835, 0.001067966, -0.005356869, -0.0007647854, -9.582718, 0, 0, 29.92016, 1, 1, 760, 800
 86493722, 0, -0.0005167003, 0.002259115, 0.001137848, -0.002672374, -0.002062209, -9.625183, 0, 0, 29.92222, 1, 1, 1000, 1000
 86493722, 1, -0.0003339517, 0.002218729, 0.0009706491, -0.001816309, -0.003288729, -9.627296, 0, 0, 29.92217, 1, 1, 760, 800
 86533706, 0, -0.0011513, 0.001821944, 0.001123526, -0.00198194, -0.001591702, -9.669149, 0, 0, 29.92423, 1, 1, 1000, 1000
 86533706, 1, -0.00106998, 0.001662238, 0.001038984, -0.003905725, -0.003506729, -9.670248, 0, 0, 29.92418, 1, 1, 760, 800
 86573690, 0, 0.0002031536, -0.000628359, 0.001046097, -0.0006280834, -0.001826079, -9.708568, 0, 0, 29.92624, 1, 1, 1000, 1000
 86573690, 1, 0.0003606494, -0.0006284117, 0.00108935, -0.0005053064, -0.002925314, -9.70841, 0, 0, 29.92619, 1, 1, 760, 800
 86613674, 0, 0.0006101249, 0.001819889, 0.0009843854, -0.002375813, -0.0004161511, -9.742414, 0, 0, 29.92825, 1, 1, 1000, 1000
 86613674, 1, 0.000606211, 0.00189602, 0.001104945, -0.003129918, 9.795879E-05, -9.742796, 0, 0, 29.9282, 1, 1, 760, 800
 86653658, 0, 0.002293536, 0.002577881, 0.001031953, -0.003584695, -0.001060042, -9.778843, 0, 0, 29.93026, 1, 1, 1000, 1000
 86653658, 1, 0.002345962, 0.002543749, 0.00101573, -0.003266551, -0.002606156, -9.776969, 0, 0, 29.93021, 1, 1, 760, 800
 86693642, 0, 0.00148263, 0.003215077, 0.001013556, -0.003216003, -0.0007666392, -9.809008, 0, 0, 29.93227, 1, 1, 1000, 1000
 86693642, 1, 0.00150247, 0.003335901, 0.0009655609, -0.003963248, -0.0007439057, -9.807609, 0, 0, 29.93222, 1, 1, 760, 800
 86733626, 0, 0.0008264704, 0.001466477, 0.001017821, -0.002562399, -8.198178E-05, -9.827694, 0, 0, 29.93427, 1, 1, 1000, 1000
 86733626, 1, 0.0007998819, 0.001755037, 0.0009910008, -0.001323163, -0.0009623744, -9.830132, 0, 0, 29.93423, 1, 1, 760, 800
 86773610, 0, 0.0008665698, 0.0002943827, 0.0009522093, -0.001974883, -0.0004210978, -9.853916, 0, 0, 29.93628, 1, 1, 1000, 1000
 86773610, 1, 0.0008944296, 0.0001969726, 0.001033194, -0.003267181, -0.002952854, -9.851898, 0, 0, 29.93623, 1, 1, 760, 800
 86813594, 0, 0.0008574345, 0.001277616, 0.0009968389, -0.001851326, -0.001628841, -9.886051, 0, 0, 29.93829, 1, 1, 1000, 1000
 86813594, 1, 0.0007588115, 0.001168308, 0.0009636933, -0.002949664, -0.002165309, -9.885473, 0, 0, 29.93824, 1, 1, 760, 800
 86853578, 0, 0.0007994077, 0.001251531, 0.0009518313, -0.002434142, -0.001979604, -9.88591, 0, 0, 29.9403, 1, 1, 1000, 1000
 86853578, 1, 0.0007745387, 0.001149059, 0.001000865, -0.003089133, 0.0001125482, -9.882792, 0, 0, 29.94025, 1, 1, 760, 800
 86893562, 0, 0.004887361, 0.00426341, 0.0009210251, -0.003646344, -0.002104617, -9.919477, 0, 0, 29.94231, 1, 1, 1000, 1000
 86893562, 1, 0.004739667, 0.004399781, 0.001032072, -0.003129365, -9.199987E-05, -9.919804, 0, 0, 29.94226, 1, 1, 760, 800
 86933546, 0, 0.002361504, 0.002494077, 0.0009626476, -0.004195875, -0.0006336584, -9.927556, 0, 0, 29.94432, 1, 1, 1000, 1000
 86933546, 1, 0.002522939, 0.002743868, 0.0009340502, -0.004689198, -0.0003911221, -9.927778, 0, 0, 29.94427, 1, 1, 760, 800
 86973530, 0, 0.001636156, 0.002043433, 0.000929084, -0.002295134, -0.001457337, -9.936901, 0, 0, 29.94632, 1, 1, 1000, 1000
 86973530, 1, 0.001570878, 0.002080263, 0.001021026, -0.0008996477, -0.002958731, -9.936264, 0, 0, 29.94627, 1, 1, 760, 800
 87013514, 0, -0.001145035, -0.0007647511, 0.0009728328, -0.002935016, -0.0005993317, -9.949474, 0, 0, 29.94833, 1, 1, 1000, 1000
 87013514, 1, -0.001222593, -0.0009471439, 0.0009397339, -0.00263294, -0.001241515, -9.949535, 0, 0, 29.94828, 1, 1, 760, 800
 87053498, 0, -0.001049125, -0.0006648315, 0.0009454086, -0.004277473, -0.0009758009, -9.946905, 0, 0, 29.95034, 1, 1, 1000, 1000
 87053498, 1, -0.001182575, -0.0006607113, 0.001003151, -0.003704605, -0.0001058107, -9.943761, 0, 0, 29.95029, 1, 1, 760, 800
 87093482, 0, -0.001071156, -0.000661163, 0.0009481421, -0.003930825, -0.0008994007, -9.947198, 0, 0, 29.95234, 1, 1, 1000, 1000
 87093482, 1, -0.00104792, -0.0005762568, 0.0008686498, -0.005029136, -8.357671E-05, -9.944783, 0, 0, 29.95229, 1, 1, 760, 800
 87133466, 0, 0.0003344334, -0.0002820048, 0.0009730595, -0.003073224, 0.0003314618, -9.95822, 0, 0, 29.95435, 1, 1, 1000, 1000
 87133466, 1, 0.0003641115, -0.0001744709, 0.000956941, -0.002238214, 0.0008535302, -9.960085, 0, 0, 29.95435, 1, 1, 760, 800
 87173450, 0, 0.001706304, 0.0004038789, 0.0009683979, -0.003286843, -0.0004874209, -9.959387, 0, 0, 29.95636, 1, 1, 1000, 1000
 87173450, 1, 0.001740694, 0.000408283, 0.0009644338, -0.003043097, -0.0008567504, -9.958339, 0, 0, 29.95636, 1, 1, 760, 800
 87213434, 0, 0.003860577, 0.0009775897, 0.001004494, -0.001461579, -0.001156646, -9.956938, 0, 0, 29.95836, 1, 1, 1000, 1000
 87213434, 1, 0.004013008, 0.001367006, 0.0008774908, -0.002822953, 0.001889243, -9.956209, 0, 0, 29.95836, 1, 1, 760, 800
 87253418, 0, 0.00355412, 0.00207824, 0.0009234591, -0.003568427, 0.0007912567, -9.948271, 0, 0, 29.96037, 1, 1, 1000, 1000
 87253418, 1, 0.003504389, 0.002105094, 0.0009451921, -0.004697231, 0.001797761, -9.949818, 0, 0, 29.96037, 1, 1, 760, 800
 87293402, 0, 0.003309345, 0.003074683, 0.0008290962, -0.004302037, 0.0004928524, -9.948388, 0, 0, 29.96237, 1, 1, 1000, 1000
 87293402, 1, 0.003373612, 0.003100177, 0.0006646752, -0.005511329, -0.0003730722, -9.948645, 0, 0, 29.96237, 1, 1, 760, 800
 87333386, 0, 0.00202977, 0.002692799, 0.00071533, -0.003532717, 0.0004276117, -9.947622, 0, 0, 29.96438, 1, 1, 1000, 1000
 87333386, 1, 0.002347756, 0.002828301, 0.0008212959, -0.002396971, -0.001505063, -9.95034, 0, 0, 29.96438, 1, 1, 760, 800
 87373370, 0, 0.0008071794, 0.0001752203, 0.0006488455, -0.003096775, -0.0007488264, -9.935793, 0, 0, 29.96638, 1, 1, 1000, 1000
 87373370, 1, 0.0007934638, 0.0002999994, 0.0005203306, -0.003792364, 5.146208E-05, -9.937571, 0, 0, 29.96638, 1, 1, 760, 800
 87413354, 0, 0.0008297366, 0.0002484634, 0.0006553125, -0.004136501, 0.001208854, -9.935653, 0, 0, 29.96839, 1, 1, 1000, 1000
 87413354, 1, 0.0008700796, 0.000424504, 0.0007777099, -0.004915166, 0.002534729, -9.934236, 0, 0, 29.96839, 1, 1, 760, 800
 87453338, 0, 0.0008395215, 0.0002652355, 0.0006256631, -0.004630486, 0.000356679, -9.93364, 0, 0, 29.97039, 1, 1, 1000, 1000
 87453338, 1, 0.0007166667, 0.0003577605, 0.0006047217, -0.0007240223, -0.0003185739, -9.932272, 0, 0, 29.97039, 1, 1, 760, 800
 87493322, 0, 0.003162761, 0.004247175, 0.0007087991, -0.002238035, -0.0006291626, -9.92416, 0, 0, 29.97239, 1, 1, 1000, 1000
 87493322, 1, 0.003164174, 0.004218192, 0.0006496987, -0.005588649, -0.0006890987, -9.926615, 0, 0, 29.97239, 1, 1, 760, 800
 87533306, 0, 0.002947694, 0.003686013, 0.0006786621, -0.003982576, 0.0004979994, -9.914724, 0, 0, 29.9744, 1, 1, 1000, 1000
 87533306, 1, 0.003261558, 0.00380822, 0.0005984241, -0.004169484, -0.00129205, -9.914713, 0, 0, 29.9744, 1, 1, 760, 800
 87573290, 0, 0.003044058, 0.003419886, 0.0006484787, -0.003838085, 0.0009870052, -9.904275, 0, 0, 29.9764, 1, 1, 1000, 1000
 87573290, 1, 0.002947396, 0.00327694, 0.0007566741, -0.00503904, 0.001701169, -9.904356, 0, 0, 29.9764, 1, 1, 760, 800
 87613274, 0, -0.0003122371, 0.0001648026, 0.0006667904, -0.005112539, -2.119205E-05, -9.894118, 0, 0, 29.9784, 1, 1, 1000, 1000
 87613274, 1, -0.0004086143, 0.0002493651, 0.0006052344, -0.004914763, 0.0001236691, -9.895053, 0, 0, 29.9784, 1, 1, 760, 800
 87654091, 0, -0.0001414646, 0.0002841413, 0.0007094835, -0.002523293, 0.0001780575, -9.89491, 0, 0, 29.98041, 1, 1, 1000, 1000
 87654091, 1, -3.612607E-05, 0.0002932769, 0.0007523949, -0.003158344, -0.001301372, -9.894799, 0, 0, 29.98046, 1, 1, 760, 800
 87694075, 0, 0.000943874, 0.001205868, 0.0006783344, -0.003950793, 0.001164835, -9.886491, 0, 0, 29.98241, 1, 1, 1000, 1000
 87694075, 1, 0.0007585874, 0.001397158, 0.0006448004, -0.002187423, 0.0009136936, -9.889305, 0, 0, 29.98246, 1, 1, 760, 800
 87734059, 0, 0.001674255, 1.97802E-05, 0.0006953944, -0.002057367, 9.821205E-05, -9.880349, 0, 0, 29.98441, 1, 1, 1000, 1000
 87734059, 1, 0.001874613, 0.0001454358, 0.0007222141, -0.003935487, -0.0002412816, -9.880334, 0, 0, 29.98446, 1, 1, 760, 800
 87774043, 0, 5.384306E-05, -0.0002659085, 0.0006791429, -0.00323427, 0.0001958233, -9.871563, 0, 0, 29.98641, 1, 1, 1000, 1000
 87774043, 1, 9.380813E-05, -0.0003575952, 0.0008711825, -0.005942038, 0.0009809654, -9.873324, 0, 0, 29.98646, 1, 1, 760, 800
 87814027, 0, 0.001091248, 0.004361435, 0.0006860573, -0.003805906, 7.255867E-05, -9.861371, 0, 0, 29.98841, 1, 1, 1000, 1000
 87814027, 1, 0.00105671, 0.004395926, 0.0007395574, -0.007437994, 0.0008066375, -9.862913, 0, 0, 29.98846, 1, 1, 760, 800
 87854011, 0, 0.0008458105, 0.004137088, 0.0007658241, -0.004491028, 0.0005445086, -9.859561, 0, 0, 29.99042, 1, 1, 1000, 1000
 87854011, 1, 0.0008742597, 0.004211546, 0.0008455554, -0.00292859, -0.001045609, -9.859526, 0, 0, 29.99047, 1, 1, 760, 800
 87893995, 0, 0.0008260201, 0.004123102, 0.0007329371, -0.005244507, 0.002118293, -9.860432, 0, 0, 29.99242, 1, 1, 1000, 1000
 87893995, 1, 0.0008230472, 0.004032789, 0.000822508, -0.003202122, 0.003744287, -9.860735, 0, 0, 29.99242, 1, 1, 760, 800
 87933979, 0, 0.0008234925, 0.001327769, 0.000890811, -0.003920152, 0.0006388195, -9.854122, 0, 0, 29.99442, 1, 1, 1000, 1000
 87933979, 1, 0.0007143901, 0.001356663, 0.0006851968, -0.002191858, 0.001525282, -9.85376, 0, 0, 29.99442, 1, 1, 760, 800
 87973963, 0, 0.0003273677, -0.0002253928, 0.0009095704, -0.003541645, 0.001234925, -9.838491, 0, 0, 29.99642, 1, 1, 1000, 1000
 87973963, 1, 0.0004049537, -0.00037642, 0.0008066255, -0.004237205, 0.0008177011, -9.836954, 0, 0, 29.99642, 1, 1, 760, 800
 88013947, 0, 0.0003817915, 0.0005639445, 0.0009394324, -0.003943133, 0.00109157, -9.838476, 0, 0, 29.99842, 1, 1, 1000, 1000
 88013947, 1, 0.0002766312, 0.0005900606, 0.0009673925, -0.002772131, 0.002358379, -9.837485, 0, 0, 29.99842, 1, 1, 760, 800
 88053931, 0, 0.002586788, 0.001230432, 0.0009771428, -0.004835222, 0.0002855221, -9.83435, 0, 0, 30.00042, 1, 1, 1000, 1000
 88053931, 1, 0.002779964, 0.001282208, 0.0008465002, -0.00582342, 0.0002029216, -9.834196, 0, 0, 30.00042, 1, 1, 760, 800
 88093915, 0, 0.003728987, -0.0007806111, 0.00101459, -0.003700819, 0.0008758802, -9.824168, 0, 0, 30.00242, 1, 1, 1000, 1000
 88093915, 1, 0.003664928, -0.000793761, 0.000917503, -0.003340589, 0.0008102457, -9.823847, 0, 0, 30.00242, 1, 1, 760, 800
 88133899, 0, 0.003722373, -0.0006741159, 0.001047972, -0.003133135, 0.001357456, -9.824029, 0, 0, 30.00442, 1, 1, 1000, 1000
 88133899, 1, 0.003554517, -0.0006310031, 0.001228856, -0.004038054, 0.001670274, -9.825607, 0, 0, 30.00442, 1, 1, 760, 800
 88173883, 0, 0.003723402, -0.0006480031, 0.001103447, -0.004071132, 0.001292231, -9.823891, 0, 0, 30.00642, 1, 1, 1000, 1000
 88173883, 1, 0.003854084, -0.0007246803, 0.001086768, -0.003996538, 0.0007853643, -9.82521, 0, 0, 30.00642, 1, 1, 760, 800
 88213867, 0, 0.003724621, -0.0007030022, 0.001079717, -0.003968014, 0.0007874423, -9.823834, 0, 0, 30.00842, 1, 1, 1000, 1000
 88213867, 1, 0.003846746, -0.0007544144, 0.001257088, -0.003922073, 0.001554477, -9.823532, 0, 0, 30.00842, 1, 1, 760, 800
 88253851, 0, 0.003714176, -0.0006142611, 0.001120742, -0.003602202, 0.0003451582, -9.824937, 0, 0, 30.01041, 1, 1, 1000, 1000
 88253851, 1, 0.003535046, -0.0006856846, 0.000930076, -0.003865013, 0.001483494, -9.823202, 0, 0, 30.01041, 1, 1, 760, 800
 88293835, 0, 0.003690171, -0.0006804999, 0.001076157, -0.004382353, 0.001654934, -9.823395, 0, 0, 30.01241, 1, 1, 1000, 1000
 88293835, 1, 0.003794578, -0.000665683, 0.001046385, -0.002114265, 0.001937177, -9.822458, 0, 0, 30.01241, 1, 1, 760, 800
 88333819, 0, 0.0007509283, 0.002363567, 0.00106119, -0.004492921, 0.001503912, -9.823856, 0, 0, 30.01441, 1, 1, 1000, 1000
 88333819, 1, 0.0009064534, 0.002455786, 0.00112123, -0.004850593, 0.0003864845, -9.823502, 0, 0, 30.01436, 1, 1, 760, 800
 88373803, 0, -0.0006740118, 0.002233424, 0.0009722227, -0.004305776, 0.001315091, -9.818194, 0, 0, 30.01641, 1, 1, 1000, 1000
 88373803, 1, -0.0005914674, 0.002210488, 0.001053997, -0.003083299, 0.003048174, -9.819681, 0, 0, 30.01636, 1, 1, 760, 800
 88413787, 0, -0.003419311, 0.0007874164, 0.0009017052, -0.004471217, 0.002106151, -9.805451, 0, 0, 30.01841, 1, 1, 1000, 1000
 88413787, 1, -0.003450262, 0.0008606181, 0.0009758042, -0.003446181, 0.0004894262, -9.805569, 0, 0, 30.01836, 1, 1, 760, 800
 88453771, 0, -0.0001594939, 0.0003043887, 0.0008089758, -0.004565469, 0.0008864108, -9.809179, 0, 0, 30.0204, 1, 1, 1000, 1000
 88453771, 1, 1.723187E-05, 0.0002540974, 0.0008865501, -0.004256957, 0.002753941, -9.807778, 0, 0, 30.02036, 1, 1, 760, 800
 88493755, 0, 0.0006123927, 0.004166223, 0.0008821396, -0.004727754, 0.0006591536, -9.809138, 0, 0, 30.0224, 1, 1, 1000, 1000
 88493755, 1, 0.000677745, 0.004169896, 0.0007596372, -0.004592746, 0.0008507858, -9.807617, 0, 0, 30.02235, 1, 1, 760, 800
 88533739, 0, 0.0006340745, 0.001259351, 0.0007827199, -0.004145321, 0.002508138, -9.809771, 0, 0, 30.0244, 1, 1, 1000, 1000
 88533739, 1, 0.0007811984, 0.001386518, 0.0006453103, -0.004605912, 0.003062992, -9.809975, 0, 0, 30.02435, 1, 1, 760, 800
 88573723, 0, 0.001474285, 0.001204842, 0.0007242567, -0.003669878, 0.000702459, -9.807472, 0, 0, 30.0264, 1, 1, 1000, 1000
 88573723, 1, 0.001275951, 0.001192404, 0.0007863849, -0.004056274, 0.0004798443, -9.808182, 0, 0, 30.02634, 1, 1, 760, 800
 88613707, 0, 0.002052263, 0.001957096, 0.0007842404, -0.004394494, 0.00075782, -9.807871, 0, 0, 30.02839, 1, 1, 1000, 1000
 88613707, 1, 0.001964977, 0.002043617, 0.0007557548, -0.004975425, 0.001788528, -9.808898, 0, 0, 30.02834, 1, 1, 760, 800
 88653691, 0, 0.001813199, 0.002325353, 0.0007496572, -0.005232663, 0.002079015, -9.810143, 0, 0, 30.03039, 1, 1, 1000, 1000
 88653691, 1, 0.001763664, 0.002408552, 0.0007381124, -0.002285835, 0.002465655, -9.81021, 0, 0, 30.03034, 1, 1, 760, 800
 88693675, 0, 0.002078865, 0.002768156, 0.0006609261, -0.004596123, 0.001163801, -9.808904, 0, 0, 30.03238, 1, 1, 1000, 1000
 88693675, 1, 0.002096461, 0.002988077, 0.0006807122, -0.004480969, 0.002231508, -9.807917, 0, 0, 30.03233, 1, 1, 760, 800
 88733659, 0, 0.001589033, 0.002569483, 0.00067983, -0.004655025, 0.001809049, -9.814341, 0, 0, 30.03438, 1, 1, 1000, 1000
 88733659, 1, 0.001460085, 0.002710902, 0.0007483946, -0.005884295, 0.001752513, -9.815241, 0, 0, 30.03433, 1, 1, 760, 800
 88773643, 0, -0.0001983218, 0.002175687, 0.000780854, -0.004705374, 0.001141328, -9.888357, 0, 0, 30.03638, 1, 1, 1000, 1000
 88773643, 1, -0.0002882186, 0.002270003, 0.0006429867, -0.004939279, 0.001728368, -9.888741, 0, 0, 30.03633, 1, 1, 760, 800
 88813627, 0, -0.0005965254, 0.0006352026, 0.0007893676, -0.003964018, 0.00098681, -10.01846, 0, 0, 30.03837, 1, 1, 1000, 1000
 88813627, 1, -0.0004726901, 0.0007727281, 0.0007333336, -0.004575054, 0.001839807, -10.01609, 0, 0, 30.03832, 1, 1, 760, 800
 88853611, 0, 0.0001458347, 0.001296812, 0.0008183471, -0.005394638, 0.00172855, -10.17269, 0, 0, 30.04037, 1, 1, 1000, 1000
 88853611, 1, 0.0001513706, 0.001296745, 0.0006831542, -0.002303624, 0.001470395, -10.16891, 0, 0, 30.04032, 1, 1, 760, 800
 88893595, 0, 0.001950451, 0.004225576, 0.0007311246, -0.005104447, 0.00266928, -10.34004, 0, 0, 30.04236, 1, 1, 1000, 1000
 88893595, 1, 0.001771097, 0.004320577, 0.0007968852, -0.005264157, 0.002657954, -10.33843, 0, 0, 30.04231, 1, 1, 760, 800
 88933579, 0, 0.001575659, 0.004369454, 0.0007325128, -0.004489419, 0.002070745, -10.50882, 0, 0, 30.04435, 1, 1, 1000, 1000
 88933579, 1, 0.001608769, 0.004281527, 0.0008239281, -0.003192213, 0.001045841, -10.51005, 0, 0, 30.0443, 1, 1, 760, 800
 88973563, 0, 0.0005791623, 0.001142144, 0.0007877785, -0.003781224, 0.001505377, -10.62574, 0, 0, 30.04635, 1, 1, 1000, 1000
 88973563, 1, 0.000693156, 0.001189657, 0.0008475615, -0.005252379, 0.0004973671, -10.62395, 0, 0, 30.0463, 1, 1, 760, 800
 89013547, 0, -0.001887837, 0.001304278, 0.0007605854, -0.004030549, 0.002075564, -10.68907, 0, 0, 30.04834, 1, 1, 1000, 1000
 89013547, 1, -0.001769728, 0.001405099, 0.0008067191, -0.005815705, 0.001737335, -10.68826, 0, 0, 30.04829, 1, 1, 760, 800
 89053531, 0, 0.0008367965, 0.002024839, 0.000753304, -0.004484584, 0.0009701537, -10.74614, 0, 0, 30.05033, 1, 1, 1000, 1000
 89053531, 1, 0.0008469296, 0.001998368, 0.000554552, -0.003715051, 0.002354626, -10.74763, 0, 0, 30.05029, 1, 1, 760, 800
 89093515, 0, 0.00134212, 0.004380461, 0.0007892367, -0.004999749, 0.001487145, -10.79157, 0, 0, 30.05233, 1, 1, 1000, 1000
 89093515, 1, 0.001230548, 0.004297218, 0.000806884, -0.005852389, 0.002511387, -10.79201, 0, 0, 30.05228, 1, 1, 760, 800
 89133499, 0, -4.298107E-05, 0.002192542, 0.0007139393, -0.005886926, 0.001531234, -10.83037, 0, 0, 30.05432, 1, 1, 1000, 1000
 89133499, 1, 9.199241E-05, 0.002146867, 0.0007451752, -0.003130225, 0.001401244, -10.82835, 0, 0, 30.05427, 1, 1, 760, 800
 89173483, 0, 0.001875508, 0.00208713, 0.000783304, -0.005555167, 0.002378799, -10.86089, 0, 0, 30.05631, 1, 1, 1000, 1000
 89173483, 1, 0.00185863, 0.002142029, 0.0008002849, -0.006058573, 0.001744154, -10.85999, 0, 0, 30.05626, 1, 1, 760, 800
 89213467, 0, -0.001148953, -0.0002781443, 0.0008318232, -0.003899164, 0.001551897, -10.88949, 0, 0, 30.05831, 1, 1, 1000, 1000
 89213467, 1, -0.001340013, -0.0001362585, 0.0008877359, -0.003040515, 0.001244687, -10.88831, 0, 0, 30.05831, 1, 1, 760, 800
 89253451, 0, 0.0007358252, 0.0008599157, 0.0007523469, -0.004460712, 0.00114145, -10.91078, 0, 0, 30.0603, 1, 1, 1000, 1000
 89253451, 1, 0.0005281564, 0.0007927716, 0.0007832738, -0.004532955, 0.0005906678, -10.90938, 0, 0, 30.0603, 1, 1, 760, 800
 89293435, 0, 0.002990288, 0.003296667, 0.0008100665, -0.005633344, 0.001262084, -10.92795, 0, 0, 30.06229, 1, 1, 1000, 1000
 89293435, 1, 0.002736737, 0.003087247, 0.0008714112, -0.00518178, -0.0003169629, -10.92849, 0, 0, 30.06229, 1, 1, 760, 800
 89333419, 0, 0.0007909805, 0.003102702, 0.000766244, -0.004268937, 0.00212435, -10.94556, 0, 0, 30.06428, 1, 1, 1000, 1000
 89333419, 1, 0.0006982597, 0.003219843, 0.0005718892, -0.004306614, -8.954476E-05, -10.94396, 0, 0, 30.06428, 1, 1, 760, 800
 89373403, 0, 0.001958012, -0.0002489355, 0.0006550521, -0.004593277, 0.001496139, -10.96659, 0, 0, 30.06627, 1, 1, 1000, 1000
 89373403, 1, 0.001869363, -6.314137E-05, 0.000743097, -0.00383816, 0.0006240729, -10.96529, 0, 0, 30.06627, 1, 1, 760, 800
 89413387, 0, 0.002160227, -0.00208974, 0.0007194293, -0.002985928, 0.003168448, -10.96337, 0, 0, 30.06826, 1, 1, 1000, 1000
 89413387, 1, 0.002067253, -0.001924916, 0.0007629719, -0.005573154, 0.001722381, -10.96421, 0, 0, 30.06826, 1, 1, 760, 800
 89453371, 0, 0.002923774, 0.00240136, 0.0007594494, -0.00420437, 0.002775975, -10.9733, 0, 0, 30.07026, 1, 1, 1000, 1000
 89453371, 1, 0.002765479, 0.002289729, 0.0008376435, -0.003045659, 0.003026018, -10.97443, 0, 0, 30.07026, 1, 1, 760, 800
 89493355, 0, 0.00560661, 0.004700283, 0.0007782061, -0.00449944, 0.002187242, -10.97695, 0, 0, 30.07224, 1, 1, 1000, 1000
 89493355, 1, 0.005761834, 0.004648651, 0.0009457782, -0.00169814, 0.00195431, -10.97692, 0, 0, 30.07224, 1, 1, 760, 800
 89533339, 0, 0.002826702, 0.002012356, 0.0007830229, -0.00506667, 0.001946364, -10.97885, 0, 0, 30.07423, 1, 1, 1000, 1000
 89533339, 1, 0.002708606, 0.002030226, 0.0007903813, -0.003979274, 0.00299599, -10.98097, 0, 0, 30.07423, 1, 1, 760, 800
 89573323, 0, 0.002400032, 0.002116505, 0.0007886739, -0.003612253, 0.003712547, -10.96542, 0, 0, 30.07623, 1, 1, 1000, 1000
 89573323, 1, 0.002419191, 0.002020678, 0.000862885, -0.003829509, 0.002629091, -10.96819, 0, 0, 30.07623, 1, 1, 760, 800
 89613307, 0, 0.002870978, -0.003142344, 0.000871641, -0.003381371, 0.002518544, -10.98518, 0, 0, 30.07821, 1, 1, 1000, 1000
 89613307, 1, 0.002776673, -0.003404686, 0.0009284436, -0.006135191, 0.001047883, -10.98452, 0, 0, 30.07821, 1, 1, 760, 800
 89653291, 0, 0.002878744, -0.0008092831, 0.0009778284, -0.003117016, 0.002444939, -10.96789, 0, 0, 30.0802, 1, 1, 1000, 1000
 89653291, 1, 0.002791597, -0.0008245707, 0.0009914715, -0.002213186, 0.002151976, -10.97002, 0, 0, 30.0802, 1, 1, 760, 800
 89693275, 0, 0.002860491, 0.002679816, 0.0008562788, -0.003915508, 0.002414133, -10.95519, 0, 0, 30.08219, 1, 1, 1000, 1000
 89693275, 1, 0.002833776, 0.002694828, 0.0008671338, -0.001998738, 0.001451295, -10.95926, 0, 0, 30.08219, 1, 1, 760, 800
 89734092, 0, 0.002852993, 0.005536642, 0.0008934384, -0.004182233, 0.002823405, -10.96142, 0, 0, 30.08418, 1, 1, 1000, 1000
 89734092, 1, 0.002718913, 0.005746523, 0.0007439093, -0.00330163, 0.002546123, -10.96041, 0, 0, 30.08423, 1, 1, 760, 800
 89774076, 0, 0.002754014, 0.003319639, 0.001119616, -0.004496749, 0.002805746, -10.9549, 0, 0, 30.08617, 1, 1, 1000, 1000
 89774076, 1, 0.002820479, 0.003276914, 0.001212683, -0.003140588, 0.001124668, -10.95551, 0, 0, 30.08622, 1, 1, 760, 800
 89814060, 0, 0.00280654, 0.003825804, 0.001086798, -0.004042022, 0.002375719, -10.94106, 0, 0, 30.08816, 1, 1, 1000, 1000
 89814060, 1, 0.002719895, 0.003843208, 0.001078438, -0.003716256, 0.001404673, -10.94041, 0, 0, 30.08821, 1, 1, 760, 800
 89854044, 0, 0.00273934, 0.003790706, 0.00108473, -0.00496137, 0.003877139, -10.92394, 0, 0, 30.09015, 1, 1, 1000, 1000
 89854044, 1, 0.002678447, 0.003932843, 0.001216156, -0.003727112, 0.004911454, -10.92196, 0, 0, 30.0902, 1, 1, 760, 800
 89894028, 0, 0.002644817, 0.003745405, 0.001132236, -0.003754663, 0.002071458, -10.91012, 0, 0, 30.09214, 1, 1, 1000, 1000
 89894028, 1, 0.002918556, 0.003903863, 0.001186886, -0.002518796, 0.002691108, -10.90829, 0, 0, 30.09218, 1, 1, 760, 800
 89934012, 0, -0.000240771, -4.903485E-05, 0.001183395, -0.003967789, 0.002027044, -10.91004, 0, 0, 30.09412, 1, 1, 1000, 1000
 89934012, 1, -0.000316507, -0.0001026198, 0.001297947, -0.00379797, 0.001559304, -10.90929, 0, 0, 30.09417, 1, 1, 760, 800
 89973996, 0, -0.0008205617, 0.001238975, 0.00118849, -0.002891384, 0.002812275, -10.90484, 0, 0, 30.09611, 1, 1, 1000, 1000
 89973996, 1, -0.0007871856, 0.001281899, 0.001317609, -0.0037474, 0.002947903, -10.90473, 0, 0, 30.09611, 1, 1, 760, 800
 90013980, 0, -0.000296042, -0.0003057809, 0.001186334, -0.003907918, 0.002747216, -10.89528, 0, 0, 30.0981, 1, 1, 1000, 1000
 90013980, 1, -0.0004856358, -0.0002831876, 0.001186064, -0.00499326, 0.001244317, -10.89636, 0, 0, 30.0981, 1, 1, 760, 800
 90053964, 0, -0.00027333, -0.0004060893, 0.001182038, -0.003246586, 0.002553798, -10.87917, 0, 0, 30.10008, 1, 1, 1000, 1000
 90053964, 1, -0.0003943271, -0.0002364526, 0.001266977, -0.002389003, 0.001729169, -10.87879, 0, 0, 30.10008, 1, 1, 760, 800
 90093948, 0, -0.0003253598, 0.0008173065, 0.001133184, -0.002867485, 0.002789297, -10.86718, 0, 0, 30.10207, 1, 1, 1000, 1000
 90093948, 1, -0.0002696366, 0.001057692, 0.00109104, -0.00431052, 0.002880425, -10.86652, 0, 0, 30.10207, 1, 1, 760, 800
 90133932, 0, 0.002171453, 0.003252593, 0.001080479, -0.002726456, 0.002762028, -10.85138, 0, 0, 30.10406, 1, 1, 1000, 1000
 90133932, 1, 0.002237096, 0.003302244, 0.001027541, -0.005547181, 0.00154704, -10.85087, 0, 0, 30.10406, 1, 1, 760, 800
 90173916, 0, 0.0002636818, 0.0006256218, 0.001052197, -0.003197176, 0.002075675, -10.86116, 0, 0, 30.10604, 1, 1, 1000, 1000
 90173916, 1, 0.0003339133, 0.0006744249, 0.001037133, -0.0004083932, 0.002236683, -10.86135, 0, 0, 30.10604, 1, 1, 760, 800
 90213900, 0, 0.002855048, 0.0007292307, 0.0009912965, -0.003714739, 0.001938095, -10.84923, 0, 0, 30.10803, 1, 1, 1000, 1000
 90213900, 1, 0.002925116, 0.0007181898, 0.0008930537, -0.003503174, 0.0007605852, -10.85027, 0, 0, 30.10803, 1, 1, 760, 800
 90253884, 0, 0.002765757, 0.0007082106, 0.000968087, -0.001344062, 0.002373315, -10.83253, 0, 0, 30.11001, 1, 1, 1000, 1000
 90253884, 1, 0.002677951, 0.0005493264, 0.00104972, -0.002554512, 0.001125602, -10.83206, 0, 0, 30.11001, 1, 1, 760, 800
 90293868, 0, 0.006180971, 0.003796764, 0.0009208766, -0.003030794, 0.002180113, -10.82477, 0, 0, 30.112, 1, 1, 1000, 1000
 90293868, 1, 0.00612526, 0.003818669, 0.0007589308, -0.003470849, 0.001670055, -10.82513, 0, 0, 30.112, 1, 1, 760, 800
 90333852, 0, 0.007280791, 0.006121666, 0.0008870438, -0.003871536, 0.00280229, -10.83038, 0, 0, 30.11398, 1, 1, 1000, 1000
 90333852, 1, 0.007406113, 0.006112279, 0.001071674, -0.003949181, 0.001091773, -10.83101, 0, 0, 30.11398, 1, 1, 760, 800
 90373836, 0, 0.006655565, 0.00461909, 0.0008278491, -0.003147731, 0.001883584, -10.81853, 0, 0, 30.11597, 1, 1, 1000, 1000
 90373836, 1, 0.006557566, 0.004761538, 0.0009161445, -0.003157073, -0.0009378145, -10.81789, 0, 0, 30.11597, 1, 1, 760, 800
 90413820, 0, 0.001445714, -0.0003214052, 0.0008895377, -0.003262563, 0.003324426, -10.8087, 0, 0, 30.11795, 1, 1, 1000, 1000
 90413820, 1, 0.001592061, -0.0001939277, 0.0007684611, -0.003631262, 0.004326642, -10.80739, 0, 0, 30.1179, 1, 1, 760, 800
 90453804, 0, 0.001667323, -0.001248822, 0.0008453676, -0.002925051, 0.003855958, -10.80987, 0, 0, 30.11994, 1, 1, 1000, 1000
 90453804, 1, 0.001618374, -0.001162883, 0.0009241768, -0.003756154, 0.0002641419, -10.80863, 0, 0, 30.11989, 1, 1, 760, 800
 90493788, 0, 0.002503703, 0.002713664, 0.0008041539, -0.003353648, 0.002178397, -10.80361, 0, 0, 30.12192, 1, 1, 1000, 1000
 90493788, 1, 0.002382867, 0.002665046, 0.0008519057, -0.002796548, 0.002427623, -10.80501, 0, 0, 30.12187, 1, 1, 760, 800
 90533772, 0, 0.0006416891, 0.001888135, 0.000914093, -0.0029052, 0.001842142, -10.79558, 0, 0, 30.12391, 1, 1, 1000, 1000
 90533772, 1, 0.0008363216, 0.001899098, 0.0008231761, -0.005926063, 0.005086877, -10.79522, 0, 0, 30.12386, 1, 1, 760, 800
 90573756, 0, 0.003107834, 0.000717662, 0.0008762141, -0.004004744, 0.002642991, -10.8006, 0, 0, 30.12589, 1, 1, 1000, 1000
 90573756, 1, 0.002926275, 0.0006511873, 0.0008190698, -0.005954382, 0.003105431, -10.80089, 0, 0, 30.12584, 1, 1, 760, 800
 90613740, 0, 0.002389827, -0.0005580733, 0.0008821386, -0.003023971, 0.002082275, -10.78737, 0, 0, 30.12787, 1, 1, 1000, 1000
 90613740, 1, 0.002158101, -0.0006715951, 0.0009623385, -0.004743055, 0.002339764, -10.78708, 0, 0, 30.12782, 1, 1, 760, 800
 90653724, 0, 0.0009499333, 0.003343574, 0.0007925056, -0.003034527, 0.002226826, -10.79224, 0, 0, 30.12985, 1, 1, 1000, 1000
 90653724, 1, 0.001057936, 0.003387639, 0.000912503, -0.001617532, 0.0002201313, -10.79426, 0, 0, 30.1298, 1, 1, 760, 800
 90693708, 0, 0.002432257, 0.001470577, 0.000853281, -0.002690412, 0.001916053, -10.78823, 0, 0, 30.13184, 1, 1, 1000, 1000
 90693708, 1, 0.002309293, 0.001738863, 0.0009918433, -0.003291422, 0.004979477, -10.78726, 0, 0, 30.13179, 1, 1, 760, 800
 90733692, 0, 0.0006016377, 0.0009204802, 0.000965245, -0.001937905, 0.001345122, -10.77926, 0, 0, 30.13382, 1, 1, 1000, 1000
 90733692, 1, 0.0009208572, 0.001105041, 0.0008613419, -0.005240859, 0.001700888, -10.78054, 0, 0, 30.13377, 1, 1, 760, 800
 90773676, 0, 0.003507685, 0.001632675, 0.0008171726, -0.001581334, 0.00309677, -10.78835, 0, 0, 30.1358, 1, 1, 1000, 1000
 90773676, 1, 0.003467268, 0.001857646, 0.0007554045, -0.003931015, 0.0006207461, -10.78797, 0, 0, 30.13575, 1, 1, 760, 800
 90813660, 0, 0.001543478, 0.0009282628, 0.0008322968, -0.003204542, 0.002258871, -10.77966, 0, 0, 30.13778, 1, 1, 1000, 1000
 90813660, 1, 0.001544319, 0.00101517, 0.0008625548, -0.002233444, 0.002612113, -10.78256, 0, 0, 30.13773, 1, 1, 760, 800
 90853644, 0, 0.003125621, 0.003749718, 0.0008791867, -0.002100692, 0.001793852, -10.77755, 0, 0, 30.13976, 1, 1, 1000, 1000
 90853644, 1, 0.003192579, 0.003760407, 0.0009014883, -0.001998736, 0.0005226938, -10.77786, 0, 0, 30.13971, 1, 1, 760, 800
 90893628, 0, 0.0002224382, 0.00108857, 0.000906583, -0.001800677, 0.001592557, -10.77253, 0, 0, 30.14175, 1, 1, 1000, 1000
 90893628, 1, 0.0003059719, 0.001156027, 0.0007926142, -0.002295466, 0.001796983, -10.7728, 0, 0, 30.1417, 1, 1, 760, 800
 90933612, 0, 0.0002588581, -0.0003288982, 0.000827389, -0.001801199, 0.0005394747, -10.78278, 0, 0, 30.14373, 1, 1, 1000, 1000
 90933612, 1, 0.0001991538, -0.0003108712, 0.0007605812, -0.003915782, 0.001215768, -10.78299, 0, 0, 30.14368, 1, 1, 760, 800
 90973596, 0, -0.0007474929, -0.0004139369, 0.0007598133, -0.001846873, 0.0007420668, -10.7686, 0, 0, 30.14571, 1, 1, 1000, 1000
 90973596, 1, -0.0007904706, -0.000226244, 0.0009417915, -0.002453567, 0.001882639, -10.76972, 0, 0, 30.14566, 1, 1, 760, 800
 91013580, 0, -0.003863148, -0.0003853257, 0.0007989126, -0.002102493, 0.001281958, -10.78698, 0, 0, 30.14769, 1, 1, 1000, 1000
 91013580, 1, -0.003953727, -0.0002046281, 0.0008716843, -0.001423526, -0.0006841618, -10.78641, 0, 0, 30.14764, 1, 1, 760, 800
 91053564, 0, -0.001723611, -3.667206E-05, 0.0007796804, -0.0006800465, 0.0008718793, -10.77498, 0, 0, 30.14967, 1, 1, 1000, 1000
 91053564, 1, -0.001815673, 4.10835E-05, 0.0006850667, -0.001781773, -0.002643895, -10.77593, 0, 0, 30.14962, 1, 1, 760, 800
 91093548, 0, 0.001678995, 0.003545556, 0.000722663, -0.001937997, 0.0004785831, -10.77454, 0, 0, 30.15165, 1, 1, 1000, 1000
 91093548, 1, 0.001456608, 0.003556539, 0.0007304023, 0.0004950021, 0.0002529217, -10.77473, 0, 0, 30.1516, 1, 1, 760, 800
 91133532, 0, 0.001001919, 0.006418655, 0.0007259676, -0.001595186, 0.0004390759, -10.72867, 0, 0, 30.15363, 1, 1, 1000, 1000
 91133532, 1, 0.001190115, 0.006554229, 0.0007352546, -0.004351092, 0.0004374373, -10.72753, 0, 0, 30.15358, 1, 1, 760, 800
 91173516, 0, 0.002039258, 0.003273425, 0.0007572666, -0.002071763, -0.0001477231, -10.63773, 0, 0, 30.15561, 1, 1, 1000, 1000
 91173516, 1, 0.002195387, 0.003310381, 0.0007101278, -0.001873845, 0.002765407, -10.63841, 0, 0, 30.15556, 1, 1, 760, 800
 91213500, 0, -0.0002368302, -0.0006355445, 0.0006529976, -0.001751552, 0.0004636778, -10.53344, 0, 0, 30.15759, 1, 1, 1000, 1000
 91213500, 1, -0.000111824, -0.0006248353, 0.0004983556, 0.0007414672, 0.001663041, -10.53459, 0, 0, 30.15754, 1, 1, 760, 800
 91253484, 0, 0.00242133, 0.001565043, 0.0006702066, -0.001411449, 0.0001534834, -10.43454, 0, 0, 30.15956, 1, 1, 1000, 1000
 91253484, 1, 0.002509345, 0.001597912, 0.0006209554, -0.002082357, 0.0008975248, -10.4396, 0, 0, 30.15952, 1, 1, 760, 800
 91293468, 0, 0.004872767, 0.00334393, 0.0006571925, -0.0007235146, 0.0009959342, -10.34667, 0, 0, 30.16154, 1, 1, 1000, 1000
 91293468, 1, 0.004844467, 0.003414054, 0.0005683758, -0.002033727, 0.000843363, -10.35061, 0, 0, 30.16154, 1, 1, 760, 800
 91333452, 0, 0.00405089, 0.002138838, 0.0006750581, -0.002560344, 0.0004984318, -10.26137, 0, 0, 30.16352, 1, 1, 1000, 1000
 91333452, 1, 0.004238243, 0.002294191, 0.0006302529, -0.003195654, 0.000848428, -10.26198, 0, 0, 30.16352, 1, 1, 760, 800
 91373436, 0, 0.002670236, 0.001816868, 0.0006904755, -0.001074592, 0.00141884, -10.18506, 0, 0, 30.1655, 1, 1, 1000, 1000
 91373436, 1, 0.00262763, 0.001844925, 0.0007499047, -0.002605875, 0.003479064, -10.18445, 0, 0, 30.1655, 1, 1, 760, 800
 91413420, 0, -0.0003569797, -0.001871339, 0.0007524781, -0.0009874488, 0.0008639021, -10.11588, 0, 0, 30.16748, 1, 1, 1000, 1000
 91413420, 1, -0.0003977774, -0.001844595, 0.0006056816, -0.00129989, -0.0003562234, -10.11516, 0, 0, 30.16748, 1, 1, 760, 800
 91453404, 0, -0.0003312424, -0.0001038455, 0.0006861693, -0.0004624379, -0.0004587931, -10.05092, 0, 0, 30.16945, 1, 1, 1000, 1000
 91453404, 1, -0.0003579601, 4.724535E-05, 0.0006530267, -0.0008959384, 0.0001340175, -10.0501, 0, 0, 30.16945, 1, 1, 760, 800
 91493388, 0, 0.003245641, 0.002722379, 0.0006525441, -0.0003520186, -2.425963E-05, -9.998474, 0, 0, 30.17143, 1, 1, 1000, 1000
 91493388, 1, 0.003006808, 0.002643342, 0.0007045261, -0.002542024, -0.0003696402, -9.996664, 0, 0, 30.17143, 1, 1, 760, 800
 91533372, 0, 0.001481981, 0.0007350381, 0.000769018, -0.001103774, 0.001083701, -9.942625, 0, 0, 30.17341, 1, 1, 1000, 1000
 91533372, 1, 0.001514537, 0.0006869366, 0.0007923417, 0.001949569, -0.0003457571, -9.943386, 0, 0, 30.17341, 1, 1, 760, 800
 91573356, 0, 0.002334883, 0.002532529, 0.0007184772, 0.0006867377, -0.0003267486, -9.901386, 0, 0, 30.17538, 1, 1, 1000, 1000
 91573356, 1, 0.002239336, 0.00253269, 0.0007237181, -0.0006527744, -0.0002918252, -9.901773, 0, 0, 30.17538, 1, 1, 760, 800
 91613340, 0, -0.002508868, -0.00232774, 0.0007786344, -0.0009491006, 0.000514344, -9.861382, 0, 0, 30.17736, 1, 1, 1000, 1000
 91613340, 1, -0.002639943, -0.002387996, 0.0007937013, 0.001844245, -0.0003413422, -9.8616, 0, 0, 30.17736, 1, 1, 760, 800
 91653324, 0, 0.00362777, 0.002754678, 0.0008440887, -0.0003674492, -0.001530109, -9.832226, 0, 0, 30.17934, 1, 1, 1000, 1000
 91653324, 1, 0.003516468, 0.002789977, 0.0008453887, 0.0004655543, -0.0009118914, -9.831682, 0, 0, 30.17934, 1, 1, 760, 800
 91693308, 0, 0.003048255, 0.003322673, 0.000824856, -0.000646391, -0.0004893343, -9.800426, 0, 0, 30.18131, 1, 1, 1000, 1000
 91693308, 1, 0.002925678, 0.003364769, 0.0009116876, -0.002835461, 0.0005358348, -9.800628, 0, 0, 30.18131, 1, 1, 760, 800
 91733292, 0, 0.0001725313, 0.001442935, 0.0008276732, -0.001170198, 0.0003371352, -9.764214, 0, 0, 30.18329, 1, 1, 1000, 1000
 91733292, 1, 0.0004381801, 0.001574313, 0.0008606736, -0.001063375, -0.002078785, -9.763859, 0, 0, 30.18329, 1, 1, 760, 800
 91773276, 0, -0.0005537249, 0.000647553, 0.000827049, -0.0005652942, -0.0001848786, -9.752875, 0, 0, 30.18526, 1, 1, 1000, 1000
 91773276, 1, -0.000559623, 0.000624985, 0.0007086834, -0.0002812337, -0.0006775074, -9.753708, 0, 0, 30.18526, 1, 1, 760, 800
 91813260, 0, -0.001656665, -0.0004426709, 0.000890669, 1.843328E-05, -0.0008998089, -9.733259, 0, 0, 30.18724, 1, 1, 1000, 1000
 91813260, 1, -0.001576862, -0.0006000017, 0.000839268, -0.00072017, -0.0001983404, -9.735392, 0, 0, 30.18724, 1, 1, 760, 800
 91854077, 0, 0.004008924, 0.003543774, 0.0008806535, 0.0003097086, 0.0002203582, -9.709936, 0, 0, 30.18922, 1, 1, 1000, 1000
 91854077, 1, 0.003801882, 0.003566635, 0.0009222505, -0.00149696, -0.0008085259, -9.709919, 0, 0, 30.18927, 1, 1, 760, 800
 91894061, 0, 0.002342309, 0.00145221, 0.0008599609, -0.001085288, -0.001467295, -9.702584, 0, 0, 30.19119, 1, 1, 1000, 1000
 91894061, 1, 0.002328792, 0.001501116, 0.0008480604, -0.0003220722, 0.0001606555, -9.706032, 0, 0, 30.19124, 1, 1, 760, 800
 91934045, 0, 5.050358E-05, 9.234583E-06, 0.0008622531, 0.0001126149, -0.0002334316, -9.684081, 0, 0, 30.19316, 1, 1, 1000, 1000
 91934045, 1, 8.118576E-05, 0.0001233142, 0.001005792, -0.000588642, -0.0003664659, -9.686646, 0, 0, 30.19321, 1, 1, 760, 800
 91974029, 0, 0.002160079, 0.001608831, 0.001071516, 0.0007555343, -8.75887E-05, -9.677554, 0, 0, 30.19514, 1, 1, 1000, 1000
 91974029, 1, 0.002069856, 0.001778959, 0.0009755727, 0.001168284, -0.0005670651, -9.67788, 0, 0, 30.19519, 1, 1, 760, 800
 92014013, 0, 0.001344508, 0.001537418, 0.001060301, 0.000115822, -0.001240806, -9.677817, 0, 0, 30.19711, 1, 1, 1000, 1000
 92014013, 1, 0.00139827, 0.001584173, 0.001002387, 0.0001137939, -0.0001334173, -9.676455, 0, 0, 30.19716, 1, 1, 760, 800
 92053997, 0, 0.001365308, 0.001547603, 0.001096679, -0.0006655983, -0.001077899, -9.680585, 0, 0, 30.19909, 1, 1, 1000, 1000
 92053997, 1, 0.001216676, 0.001553458, 0.001004159, -0.0007804722, -0.002720384, -9.681635, 0, 0, 30.19909, 1, 1, 760, 800
 92093981, 0, 0.00133308, 0.001266053, 0.001030753, -0.000516636, -0.0006755939, -9.680812, 0, 0, 30.20106, 1, 1, 1000, 1000
 92093981, 1, 0.001282358, 0.001370355, 0.0009742678, 0.0006176067, -0.003295634, -9.68135, 0, 0, 30.20106, 1, 1, 760, 800
 92133965, 0, 0.001116639, 0.002084206, 0.001152592, 0.0005737983, -0.001321766, -9.66628, 0, 0, 30.20303, 1, 1, 1000, 1000
 92133965, 1, 0.001012157, 0.002064837, 0.001123691, 0.0007360675, -0.002630438, -9.668425, 0, 0, 30.20303, 1, 1, 760, 800
 92173949, 0, 0.002062529, 0.002774386, 0.00117312, -0.0003925023, -0.0001922792, -9.67196, 0, 0, 30.20501, 1, 1, 1000, 1000
 92173949, 1, 0.002202951, 0.002924595, 0.001194579, -0.001689405, -0.00176461, -9.671588, 0, 0, 30.20501, 1, 1, 760, 800
 92213933, 0, -0.0003527807, 0.0002922833, 0.001187584, 0.00094379, -0.0009110771, -9.673685, 0, 0, 30.20698, 1, 1, 1000, 1000
 92213933, 1, -0.0003385911, 0.0002427787, 0.001219902, 4.970314E-05, -0.0001106216, -9.672706, 0, 0, 30.20698, 1, 1, 760, 800
 92253917, 0, 0.001616794, 0.002604967, 0.001161461, -0.0001245145, -0.0005550628, -9.675718, 0, 0, 30.20895, 1, 1, 1000, 1000
 92253917, 1, 0.001419301, 0.002521555, 0.001166379, -0.0003956934, -0.002091883, -9.675363, 0, 0, 30.20895, 1, 1, 760, 800
 92293901, 0, 0.001435448, 0.003859133, 0.001124881, -0.0001173939, -0.002041198, -9.680913, 0, 0, 30.21092, 1, 1, 1000, 1000
 92293901, 1, 0.001545728, 0.003798197, 0.001158451, -0.0009463821, -0.0011036, -9.682129, 0, 0, 30.21092, 1, 1, 760, 800
 92333885, 0, 0.0007859967, 0.003407391, 0.001119443, 0.0009745128, -0.001114812, -9.684085, 0, 0, 30.21289, 1, 1, 1000, 1000
 92333885, 1, 0.0006582588, 0.003462933, 0.001067614, -0.001351006, -0.004081327, -9.685911, 0, 0, 30.21289, 1, 1, 760, 800
 92373869, 0, 4.900934E-05, 0.003482016, 0.001108259, -0.0002310323, -0.00148119, -9.69162, 0, 0, 30.21486, 1, 1, 1000, 1000
 92373869, 1, -2.475342E-05, 0.003593863, 0.001114615, 0.001351355, -0.002349576, -9.691525, 0, 0, 30.21486, 1, 1, 760, 800
 92413853, 0, 0.0007251948, -0.002610118, 0.001271417, 0.0002500467, -0.0008369802, -9.705134, 0, 0, 30.21684, 1, 1, 1000, 1000
 92413853, 1, 0.0008047062, -0.002777823, 0.001365681, 0.0001393716, -0.001788443, -9.701254, 0, 0, 30.21684, 1, 1, 760, 800
 92453837, 0, 0.0006553874, -0.002261601, 0.00123598, 0.0009040524, -0.001928566, -9.706097, 0, 0, 30.21881, 1, 1, 1000, 1000
 92453837, 1, 0.0006857951, -0.002299075, 0.001337196, -0.002412422, 0.0002186617, -9.708071, 0, 0, 30.21881, 1, 1, 760, 800
 92493821, 0, 0.000635724, 0.0007932392, 0.001304266, 0.00133124, -0.001207549, -9.707669, 0, 0, 30.22078, 1, 1, 1000, 1000
 92493821, 1, 0.0007432532, 0.0005944694, 0.001134692, -0.0009127031, -0.003677656, -9.707125, 0, 0, 30.22073, 1, 1, 760, 800
 92533805, 0, 0.000715026, 0.0008331345, 0.001347511, 0.0004872078, -0.002030401, -9.710892, 0, 0, 30.22275, 1, 1, 1000, 1000
 92533805, 1, 0.0005998729, 0.0008631829, 0.001304513, 0.000227119, -0.0007859018, -9.712116, 0, 0, 30.2227, 1, 1, 760, 800
 92573789, 0, 0.0009779653, 0.00266121, 0.001245069, -0.0004948769, -0.001163939, -9.718359, 0, 0, 30.22472, 1, 1, 1000, 1000
 92573789, 1, 0.001176334, 0.002569203, 0.001120934, 0.00102168, -0.001019472, -9.719599, 0, 0, 30.22467, 1, 1, 760, 800
 92613773, 0, -0.0003419361, 0.002551648, 0.00121642, 0.0008081354, -0.001847117, -9.737234, 0, 0, 30.22669, 1, 1, 1000, 1000
 92613773, 1, -0.0003858827, 0.002660826, 0.0009996023, -0.001189032, -0.001156274, -9.735307, 0, 0, 30.22664, 1, 1, 760, 800
 92653757, 0, 0.001935694, 0.004389704, 0.001227973, 0.0009927463, -0.0012683, -9.736344, 0, 0, 30.22866, 1, 1, 1000, 1000
 92653757, 1, 0.001766223, 0.004540185, 0.001212778, 0.001506346, -0.0008095138, -9.735229, 0, 0, 30.22861, 1, 1, 760, 800
 92693741, 0, 0.001663833, 0.005610335, 0.001314622, -0.001014744, -0.001879999, -9.746644, 0, 0, 30.23063, 1, 1, 1000, 1000
 92693741, 1, 0.001826754, 0.0057978, 0.001308329, 0.001804129, -0.001785289, -9.746238, 0, 0, 30.23058, 1, 1, 760, 800
 92733725, 0, 0.001766504, 0.002531918, 0.001426226, 0.0004103766, -0.001320452, -9.749903, 0, 0, 30.2326, 1, 1, 1000, 1000
 92733725, 1, 0.001643207, 0.002412567, 0.001648048, 0.001741921, -0.0001966937, -9.751274, 0, 0, 30.23255, 1, 1, 760, 800
 92773709, 0, 0.001725183, 0.002577579, 0.001498892, 6.729068E-05, -0.001760239, -9.75379, 0, 0, 30.23457, 1, 1, 1000, 1000
 92773709, 1, 0.001686541, 0.002582794, 0.001530616, 0.001638964, -0.001273245, -9.751958, 0, 0, 30.23452, 1, 1, 760, 800
 92813693, 0, 0.001733821, 0.0004084531, 0.001402969, 0.0007417613, -0.002168794, -9.757072, 0, 0, 30.23653, 1, 1, 1000, 1000
 92813693, 1, 0.001779325, 0.0005192068, 0.001435514, 0.0005892412, -0.002129274, -9.758455, 0, 0, 30.23648, 1, 1, 760, 800
 92853677, 0, 0.001667584, 0.002787324, 0.001140035, 0.0008159118, -0.001210718, -9.763054, 0, 0, 30.2385, 1, 1, 1000, 1000
 92853677, 1, 0.001781076, 0.003057332, 0.001089824, -0.001008746, -0.0007288848, -9.763537, 0, 0, 30.23845, 1, 1, 760, 800
 92893661, 0, 0.002106515, 0.003242075, 0.001038558, 0.001085954, -0.002623352, -9.778481, 0, 0, 30.24047, 1, 1, 1000, 1000
 92893661, 1, 0.002071419, 0.003345643, 0.001084332, 0.001359797, -0.002873301, -9.776717, 0, 0, 30.24042, 1, 1, 760, 800
 92933645, 0, 0.002372032, 0.003460163, 0.001120152, 0.001330121, -0.001322958, -9.779034, 0, 0, 30.24244, 1, 1, 1000, 1000
 92933645, 1, 0.002459508, 0.00352295, 0.001195334, 0.002065203, 0.0002777143, -9.779389, 0, 0, 30.24239, 1, 1, 760, 800
 92973629, 0, 0.002937809, -0.0005259328, 0.001014172, 0.001969423, -0.002715048, -9.786904, 0, 0, 30.24441, 1, 1, 1000, 1000
 92973629, 1, 0.002927611, -0.000408078, 0.001022789, 0.0009202134, -0.00150938, -9.785251, 0, 0, 30.24436, 1, 1, 760, 800
 93013613, 0, -0.001420884, -0.0003448155, 0.0008265462, 0.001685862, -0.001548741, -9.792176, 0, 0, 30.24637, 1, 1, 1000, 1000
 93013613, 1, -0.00138353, -0.0003497961, 0.0008705622, -0.0007479915, -0.002365513, -9.790804, 0, 0, 30.24632, 1, 1, 760, 800
 93053597, 0, -0.001155568, -0.0003458383, 0.0009018501, 0.0007614045, -0.001491388, -9.792604, 0, 0, 30.24834, 1, 1, 1000, 1000
 93053597, 1, -0.001418474, -0.0002135347, 0.0007878082, 0.001980584, -7.655098E-05, -9.789207, 0, 0, 30.24829, 1, 1, 760, 800
 93093581, 0, -0.001096463, -0.0002547036, 0.0008565991, 0.001311784, -0.002359639, -9.792454, 0, 0, 30.25031, 1, 1, 1000, 1000
 93093581, 1, -0.00111728, -0.0002696209, 0.0007735005, 8.363464E-05, -1.068501E-05, -9.793122, 0, 0, 30.25026, 1, 1, 760, 800
 93133565, 0, 0.001026722, -0.0002408212, 0.0009177816, 0.001313248, -0.0006043494, -9.792068, 0, 0, 30.25227, 1, 1, 1000, 1000
 93133565, 1, 0.001078062, -0.0001872035, 0.0009591575, 0.001055566, 5.602617E-05, -9.791794, 0, 0, 30.25222, 1, 1, 760, 800
 93173549, 0, 0.001991049, 0.001938164, 0.0009254726, 0.0008936193, -0.002295668, -9.801763, 0, 0, 30.25424, 1, 1, 1000, 1000
 93173549, 1, 0.002008023, 0.002122224, 0.0008827065, 0.003491574, -0.0002377035, -9.803316, 0, 0, 30.25419, 1, 1, 760, 800
 93213533, 0, 0.001889421, -0.001082576, 0.0008079627, 0.001424015, -0.001385879, -9.80833, 0, 0, 30.25621, 1, 1, 1000, 1000
 93213533, 1, 0.001855913, -0.001161798, 0.0009959058, -0.001970506, -0.003177413, -9.809027, 0, 0, 30.25616, 1, 1, 760, 800
 93253517, 0, 0.003620345, 0.002080917, 0.0007684611, 0.001112183, -0.001106886, -9.807392, 0, 0, 30.25817, 1, 1, 1000, 1000
 93253517, 1, 0.003483671, 0.001906966, 0.0008452932, 0.002663499, -0.002194557, -9.807416, 0, 0, 30.25812, 1, 1, 760, 800
 93293501, 0, 0.005919974, 0.001454972, 0.0007630666, 0.001845258, -0.001913642, -9.810582, 0, 0, 30.26014, 1, 1, 1000, 1000
 93293501, 1, 0.005986407, 0.001624434, 0.0007847656, 0.001742398, -0.003650118, -9.810915, 0, 0, 30.26009, 1, 1, 760, 800
 93333485, 0, 0.004743612, 0.000107143, 0.0007368324, 0.0002579753, -0.001987357, -9.813355, 0, 0, 30.2621, 1, 1, 1000, 1000
 93333485, 1, 0.004724746, 7.232153E-05, 0.0007314048, 0.0004644685, -0.0008499793, -9.811668, 0, 0, 30.26205, 1, 1, 760, 800
 93373469, 0, 0.002794161, -0.0009066673, 0.000814083, 7.068536E-05, -0.001846942, -9.818249, 0, 0, 30.26407, 1, 1, 1000, 1000
 93373469, 1, 0.002712129, -0.0009153429, 0.0008686397, 0.002371531, -0.001928399, -9.81735, 0, 0, 30.26407, 1, 1, 760, 800
 93413453, 0, 0.001256168, -0.001211977, 0.0008330359, 0.001468136, -0.00128003, -9.813766, 0, 0, 30.26603, 1, 1, 1000, 1000
 93413453, 1, 0.001377238, -0.0009036971, 0.000903222, -0.0003623542, 0.0009867793, -9.816058, 0, 0, 30.26603, 1, 1, 760, 800
 93453437, 0, 0.001693735, 0.001295795, 0.0008226609, 0.001511782, 0.0006348949, -9.810087, 0, 0, 30.268, 1, 1, 1000, 1000
 93453437, 1, 0.001340753, 0.00158167, 0.0009663292, 0.0001280346, -0.001457659, -9.811494, 0, 0, 30.268, 1, 1, 760, 800
 93493421, 0, 0.001977915, 0.002393674, 0.0007711784, 0.001304347, -0.003011861, -9.812244, 0, 0, 30.26996, 1, 1, 1000, 1000
 93493421, 1, 0.001845066, 0.0023036, 0.0007873162, 0.003693869, -0.003838908, -9.812774, 0, 0, 30.26996, 1, 1, 760, 800
 93533405, 0, -0.0005215254, 0.0007692178, 0.0007619149, 0.001117787, -0.00151927, -9.812248, 0, 0, 30.27192, 1, 1, 1000, 1000
 93533405, 1, -0.0006325856, 0.001058036, 0.0008373836, 0.001241614, 0.0009677792, -9.809593, 0, 0, 30.27192, 1, 1, 760, 800
 93573389, 0, -0.0004854999, 0.0007556229, 0.0007853043, 0.001022961, -0.002626288, -9.813117, 0, 0, 30.27389, 1, 1, 1000, 1000
 93573389, 1, -0.0004649537, 0.0007898433, 0.0008382111, 0.004872247, -0.002959474, -9.809997, 0, 0, 30.27389, 1, 1, 760, 800
 93613373, 0, -0.001878376, -0.0003501759, 0.0007060645, 0.001676125, -0.0007131235, -9.811908, 0, 0, 30.27585, 1, 1, 1000, 1000
 93613373, 1, -0.001710811, -0.0001469839, 0.0008193803, 0.001907591, 0.0006442206, -9.812792, 0, 0, 30.27585, 1, 1, 760, 800
 93653357, 0, -6.2274E-05, 0.001877045, 0.0007348364, 0.001266883, -0.001960432, -9.810624, 0, 0, 30.27781, 1, 1, 1000, 1000
 93653357, 1, 0.0001311817, 0.001946275, 0.0006662414, 0.001638131, -0.00332707, -9.810499, 0, 0, 30.27781, 1, 1, 760, 800
 93693341, 0, 0.001844293, 0.004727048, 0.0007772, 0.00167442, -0.001691506, -9.810545, 0, 0, 30.27978, 1, 1, 1000, 1000
 93693341, 1, 0.001684577, 0.004686906, 0.0008334656, 0.001056236, -0.003433798, -9.810959, 0, 0, 30.27978, 1, 1, 760, 800
 93733325, 0, 0.0008115671, 0.004080649, 0.0007918539, 0.000688088, -0.00133607, -9.812458, 0, 0, 30.28174, 1, 1, 1000, 1000
 93733325, 1, 0.001049977, 0.003939653, 0.000757185, 0.00122005, -0.002347173, -9.813661, 0, 0, 30.28174, 1, 1, 760, 800
 93773309, 0, 0.0007638884, 0.003531811, 0.0008478726, 0.001970227, -0.001381099, -9.809679, 0, 0, 30.2837, 1, 1, 1000, 1000
 93773309, 1, 0.0009514063, 0.003381277, 0.0008807976, 0.001551657, -0.0007741519, -9.810232, 0, 0, 30.2837, 1, 1, 760, 800
 93813293, 0, -0.001275822, 0.0007531322, 0.0009058687, 0.00250372, -0.001218211, -9.809775, 0, 0, 30.28566, 1, 1, 1000, 1000
 93813293, 1, -0.001048592, 0.0004931954, 0.0007617659, 0.0006405614, -0.001497698, -9.810994, 0, 0, 30.28566, 1, 1, 760, 800
 93853277, 0, 0.0006014138, 9.539174E-05, 0.0008466874, 0.001686909, -0.001089462, -9.807157, 0, 0, 30.28763, 1, 1, 1000, 1000
 93853277, 1, 0.0006193974, 0.0001058614, 0.0008306997, 0.002746365, -0.002368685, -9.806646, 0, 0, 30.28763, 1, 1, 760, 800
 93893261, 0, 0.001713414, 0.0004730328, 0.0008514773, 0.001844367, -0.002456498, -9.808871, 0, 0, 30.28959, 1, 1, 1000, 1000
 93893261, 1, 0.001579615, 0.0004326102, 0.0007559177, 0.001223825, -0.00129079, -9.807786, 0, 0, 30.28959, 1, 1, 760, 800
 93934078, 0, 0.001220296, -0.0006082935, 0.0007862294, 0.001263326, -0.001195943, -9.808692, 0, 0, 30.29155, 1, 1, 1000, 1000
 93934078, 1, 0.0009308437, -0.0005444522, 0.0007610873, 0.001408353, -0.0005723346, -9.810436, 0, 0, 30.2916, 1, 1, 760, 800
